t,x,y,z,vx,vy,vz,ax,ay,az,yaw,yaw_dot
3.630157947540283,4.902520279427516e-08,-3.6120142943422545e-08,2.0079999181213983,7.3490422930919804e-06,-5.412445810715494e-06,1.8015919598016053e-06,0.0007339569019715724,-0.0005401298985620615,0.00017892137708212813,-0.031415926535897754,-1.5707963267948966
3.650270462036133,1.957815892540649e-07,-1.3916345844441027e-07,2.007999954292331,2.2022906549138736e-05,-1.5468392510085745e-05,5.3574735133009575e-06,0.001467381489484255,-0.0010057442835536923,0.0003546349688313288,-0.06283185307179551,-1.5707963267948966
3.6699860095977783,3.496278210105602e-07,-2.3789876326638632e-07,2.0079692898791563,3.691236326334714e-05,-2.5118353057671923e-05,-0.0010270112975384273,0.002193200856443343,-0.0014874830231494027,0.0005346172893305444,-0.09424777960769326,-1.5707963267948966
3.6901543140411377,1.5746208141175464e-06,-1.0695758564896917e-06,2.00794886846643,8.798751544779547e-05,-5.963499739596234e-05,-0.0010145373002047617,0.0029133749739475856,-0.0019631757669953086,0.0007124198876888841,-0.12566370614359101,-1.5707963267948966
3.710139751434326,9.471571747275657e-07,-6.119403390344187e-07,2.007749938088227,7.466267619693036e-05,-4.955120617461233e-05,-0.00563939141592875,0.0036162699904999465,-0.002438720663790066,0.0009190732146797689,-0.09424777960769326,1.5707963267948966
3.7302281856536865,3.2102490952585095e-06,-2.1221092165150697e-06,2.00763734772727,0.00015397115603962814,-0.00010303068437144194,-0.005618964108664473,0.004313662336424368,-0.0029082219088332703,0.001123244698451799,-0.08800286096210641,0.3122459322793425
3.750178575515747,2.3986441467786508e-06,-1.4938881538469304e-06,2.0074521447805864,0.00012963191192473788,-8.383454587297929e-05,-0.009364914104400775,0.004988465701289014,-0.0032903499911379245,0.001349273841473118,-0.05658693442620866,1.5707963267948966
3.7699501514434814,5.4703647500124035e-06,-3.3275184254512675e-06,2.006929273129169,0.0001969625340222724,-0.00011983181889308023,-0.0166634126602616,0.005560642358478506,-0.0031135650266365285,0.0016235558303384248,-0.05987056227452259,-0.16418139241569651
3.790109395980835,1.0559680136798959e-05,-6.335137884973654e-06,2.006596347710749,0.0003138623410440995,-0.00018034455860584938,-0.016628225692251433,0.0061286434878898,-0.0029378944445443227,0.0018946028809712237,-0.08117210862054502,-1.0650773173011219
3.8100056648254395,1.4011427195715394e-05,-8.441833924600631e-06,2.0056323814081827,0.0003417542687290224,-0.00018915892273024985,-0.031784775007576614,0.006796018551309728,-0.002686191123032204,0.00226748722515888,-0.04975618208464727,1.5707963267948966
3.830292224884033,2.224994410011461e-05,-1.274558405813798e-05,2.0049971640485733,0.00048430442295110206,-0.00024038465436609387,-0.031735732388281646,0.007458119203618156,-0.002436760117306093,0.0026360570209969826,-0.06853952358590876,-0.9391670750630743
3.8501462936401367,2.5111134493129782e-05,-1.5114138674589029e-05,2.0045130456756803,0.0005021440385160656,-0.00026249652279035796,-0.03613313379654936,0.008643496898302632,-0.0025269847576975947,0.0030268974204109805,-0.05010598822550616,0.9216767680201299
3.870004415512085,4.752341315027648e-05,-2.838752640749583e-05,2.003008907726658,0.0007444914764612651,-0.00038422794222106745,-0.03727831719423673,0.009957513612758906,-0.0027496239992609575,0.0034189882734314346,-0.08152191476140391,-1.5707963267948966
3.8900861740112305,6.449166379341645e-05,-3.663662416446057e-05,2.0022640510909735,0.0009566681521295097,-0.00044140873993237266,-0.037206054652778965,0.011257883739063529,-0.0029676962680054335,0.003806505015704004,-0.06525588861762399,0.8133013071889961
3.910083293914795,7.163628042609138e-05,-4.144803820429224e-05,2.001848359163725,0.0009925453514561323,-0.0004776180929342241,-0.038588325944741986,0.012336994295840958,-0.0029912334679818623,0.004194112167207161,-0.08207490945044515,-0.8409510416410582
3.930294990539551,9.402600651346983e-05,-5.160010813203693e-05,2.001077457079418,0.0012499896093629368,-0.0005376601774332716,-0.038500605675194026,0.013405700539593158,-0.0030126169261247273,0.004577155676300171,-0.0735982535054287,0.4238327972508227
3.9501657485961914,0.0001030212258195456,-5.697476004978036e-05,2.0006617474033175,0.001276014069835218,-0.0005674602191372703,-0.039275009593499444,0.014631422835687826,-0.003515037653909668,0.004955974080163873,-0.08321702879697979,-0.48093876457755425
3.9700164794921875,0.0001432059313022605,-7.518346098222681e-05,1.9995068962174691,0.0015907985336914253,-0.0006632820315628823,-0.03835698985682404,0.015656566214460918,-0.003811081286355208,0.005321479767554729,-0.08596021118203279,-0.13715911925265
3.990126848220825,0.00017822103321337332,-8.923083653022925e-05,1.9987408448640618,0.001914093826544803,-0.0007424278380071629,-0.038246941741652454,0.016671217589051386,-0.004102776011569304,0.005682602742292167,-0.09022063231826927,-0.21302105681182404
4.010007619857788,0.0002140415132191247,-0.0001041014475240649,1.9981067372798218,0.0021125673512586646,-0.0008075526575114772,-0.03473594438655928,0.017629060551441658,-0.004509673443450173,0.006009250009571834,-0.09918458724815382,-0.4481977464942277
4.030110120773315,0.0002598820436710629,-0.00012118132970677473,1.9974132418183301,0.002474646194620525,-0.0009017764170040473,-0.03461252628078347,0.01857721134067861,-0.00491193061379457,0.006331894821238384,-0.09925443328642602,-0.003492301913610163
4.05016016960144,0.000282341963936065,-0.0001297775314365965,1.9971806980729938,0.0025776758563131755,-0.0009334278313051008,-0.0312928873627884,0.0194465611953513,-0.005099887203415267,0.006622333968410533,-0.10889986243235583,-0.48227145729649035
4.0700507164001465,0.0003378423077163727,-0.0001494784412486867,1.9965561839726877,0.0029752268866103746,-0.0010372793649449652,-0.03115756669415592,0.020307071197571035,-0.005284751932058108,0.00690912631572402,-0.10881837137380224,0.004074552927679775
4.090108394622803,0.0003963616634268102,-0.00016983157955407924,1.9961057105696214,0.0032635077303727346,-0.0011088766131532946,-0.026762665612091802,0.021092020581168075,-0.00546659434809349,0.007156852571447358,-0.12426972341895537,-0.7725676022576566
4.110051393508911,0.0005010484482232994,-0.00020483926124540433,1.995410313673373,0.0038283570834166895,-0.0012565460362526047,-0.023585998468641275,0.02206342752878608,-0.0059197274441012806,0.007377420933430195,-0.13131788697084934,-0.35240817759469856
4.130146026611328,0.0005820925151279444,-0.00023118406917678854,1.9949400837456537,0.004279252932554737,-0.0013794273998060588,-0.023436268875896234,0.023024425823688667,-0.006367520667114777,0.007595049354140239,-0.1335004338716792,-0.10912734504149313
4.150156259536743,0.0006240802750923085,-0.0002446537810118949,1.9948079187274694,0.004462427507604557,-0.0014257214101398175,-0.02045138828122615,0.023914292796037843,-0.006484215341066957,0.007785373308979746,-0.14419861542895118,-0.534909077863599
4.169973134994507,0.0008184580296382747,-0.0003054998222672444,1.9941434894455103,0.005348646884441039,-0.001652483558426224,-0.016485393979515213,0.024743307375509845,-0.006502746186523979,0.007943907045579832,-0.16138599673437293,-0.8593690652710873
4.190151691436768,0.0009304344881756257,-0.0003398511606203079,1.9938153808008012,0.005851735147139632,-0.0017827042223062758,-0.016324949737390782,0.02556416121856596,-0.006518930010167829,0.008100133413411223,-0.1573868140252932,0.19995913545398647
4.210037469863892,0.0009892451648991615,-0.0003576069585372021,1.9937367649296174,0.006087533268763913,-0.0018369431262102727,-0.013859463125540346,0.026376423906663334,-0.006450514207976668,0.008234261446463388,-0.17035713848484946,-0.648516222977813
4.230302333831787,0.0011163248818966034,-0.00039563129693008964,1.9934612313581093,0.0066231203855512035,-0.001965258269391859,-0.013693453804790402,0.027181010732027104,-0.006380781232178064,0.008366327737384717,-0.16751914104974874,0.1418998717550357
4.250151634216309,0.0011828106079575477,-0.0004156465472912764,1.9934002509848787,0.006871292870038323,-0.0020263359590401626,-0.011465954469325863,0.0279528249422319,-0.005773213156887109,0.0084785785092068,-0.1789159937266951,-0.5698426338473173
4.270077466964722,0.0014783091650174527,-0.000502768716062476,1.9930494719917617,0.00795587326629012,-0.002295081500772582,-0.008639048064724217,0.028641404851648695,-0.00562789627535437,0.0085685860138614,-0.18816158089057788,-0.4622793581941398
4.290237188339233,0.0016432004811705882,-0.0005497862350053618,1.9928784106676876,0.008535531261909781,-0.002406185836038344,-0.00846678967989488,0.02932327912103812,-0.00548252907393482,0.008656984969926021,-0.1836988860157711,0.2231347437403386
4.310042142868042,0.0017298958006218134,-0.000575443087863969,1.992851604804761,0.008829374109661382,-0.002496569560229704,-0.006752893788895386,0.029662748789997268,-0.005209070132611719,0.008730310373226424,-0.1921120350181873,-0.42065745012080935
4.33007550239563,0.0019124383391065927,-0.0006263981421194728,1.9927182978074234,0.009426002989843371,-0.002598029641728566,-0.006577566323551466,0.029999724241247624,-0.004937202989479763,0.008802196886048821,-0.18662098161233232,0.2745526702927492
4.3501269817352295,0.0020081936032088567,-0.000654169518667022,1.9927020242654134,0.00973197947628797,-0.0026951467181377526,-0.005099877290222187,0.03050957363522902,-0.005398156920779867,0.008861100360724029,-0.1932325268169599,-0.33057726023137946
4.369981050491333,0.0023143177428109674,-0.0007387449003630854,1.992594992776248,0.01066750479345165,-0.002892716099563953,-0.00365133797414912,0.03133663614894962,-0.005466603521252058,0.008908581497963062,-0.19083139873923427,0.12005640388628169
4.390135049819946,0.002533989816899637,-0.0007976969612005947,1.992523750839802,0.011302427074275886,-0.003002708481782668,-0.0034727013089097987,0.03215397445102685,-0.0055321530366764515,0.008954890053065928,-0.18826860812676083,0.12813953062367212
4.410076379776001,0.0027674046307006547,-0.00085983571594661,1.9925117638619223,0.011971768671192588,-0.003133154613428339,-0.0019180211245455397,0.03270397208720008,-0.005151887645428267,0.008988288739542565,-0.18780006622688816,0.02342709499363327
4.432461261749268,0.0030134171770403568,-0.0009235039646275293,1.992475203272388,0.012631300097675083,-0.003232411360568006,-0.0017379299222999222,0.03324821292201631,-0.004774219293818793,0.009020660791391145,-0.1840632021105968,0.1868432058145686
4.450096368789673,0.0031416992914488026,-0.0009566852328105729,1.992489831951749,0.012978314859381562,-0.003295518443646873,-0.0007535630760557066,0.033876439392669724,-0.004401313684392287,0.009044549634454209,-0.18401091347060694,0.002614431999492517
4.470068454742432,0.0035462933283975963,-0.0010589573548409365,1.9924989898868475,0.01399847332002628,-0.0034668527805587607,0.00030107915116872575,0.034294963744817754,-0.004113511246328221,0.00906046006930901,-0.17970557982754576,0.2152666821530591
4.490168333053589,0.003833149495384781,-0.0011290979895230945,1.9925068245803421,0.014688525547260666,-0.0035462555887408927,0.0004824404191610689,0.0347096145474385,-0.0038269815408536016,0.009075526401482422,-0.17639927075131778,0.16531545381139878
4.510083913803101,0.004134577283969774,-0.0012033898564761142,1.9925531465978543,0.015405647403214017,-0.0036868637813527584,0.0015194162486757024,0.03513800282848502,-0.003640807898860889,0.009082159952290949,-0.1755497923166689,0.04247392173244435
4.530152320861816,0.0044497461853412225,-0.0012778428880817416,1.9925853517597005,0.016112656936742936,-0.003757819199863681,0.0017011195593160712,0.03556226392501528,-0.0034547541357103917,0.00908804702332021,-0.17139621124302895,0.20767905368199724
4.550119876861572,0.004613501299227073,-0.00131723330290618,1.9926212559072642,0.01649651761502943,-0.0038373900055388593,0.002310189938217275,0.035933061248198055,-0.0033395579678673747,0.009088794231668374,-0.17182174881853163,-0.021276878775133845
4.569996118545532,0.005125349433968192,-0.00143520533491242,1.9927094619336052,0.01760083069471806,-0.003973749958501762,0.0030005853283753578,0.036358691700242064,-0.0031764352255222615,0.009084583426556747,-0.16662111856164374,0.2600315128443942
4.590098857879639,0.005484665953859872,-0.0015153047349805247,1.992771290244548,0.018332226222606652,-0.004035645554516031,0.003182229625464396,0.036780170401531274,-0.0030130871543619948,0.00907974136108246,-0.16379730838264317,0.14119050895002871
4.610074520111084,0.005860081518785192,-0.0015980123074237644,1.9928546345303317,0.01910535443351635,-0.004127524725035834,0.003805910884545824,0.03709253113387077,-0.00272700764422045,0.009069923699465916,-0.16132085107382865,0.12382286544072585
4.630130052566528,0.006249627801015905,-0.0016810891986870113,1.9929325660496802,0.019850305882087253,-0.004179215281924214,0.003987206421517307,0.037402159053407956,-0.002442271796450455,0.009059535113438374,-0.15787822432301946,0.17213133754045984
4.650174856185913,0.006450893307410546,-0.001723837937591468,1.9929834816215928,0.02025393353009747,-0.0042248055804125825,0.004378126093530678,0.03784457022745138,-0.00211793199139862,0.009045978544681777,-0.15714766455023144,0.03652798863940099
4.669973373413086,0.007076262142206304,-0.0018527014782784635,1.9931283419148231,0.021413724486539342,-0.0043196457838108665,0.004916857440316676,0.03831029294984517,-0.0018523484988437519,0.009028804613621957,-0.15215420904212484,0.24967277540532962
4.6900482177734375,0.0075122294912106525,-0.0019394472157142257,1.9932284836550644,0.022184546331911897,-0.004354046522469925,0.0050972577015668775,0.038771068671636946,-0.0015879172844130783,0.009011139970558494,-0.1492394326140296,0.1457388214047617
4.710259199142456,0.007964771416967309,-0.0020285450273526177,1.9933443805049336,0.022989905281123522,-0.004425467750851125,0.005575183797451976,0.03917817091725294,-0.001276150348128402,0.008989870642730477,-0.1469846362453735,0.11273981843280545
4.730138778686523,0.00843243206452507,-0.0021172889267020256,1.9934576807147701,0.023777500997493175,-0.004447889540181852,0.005754764804013279,0.03958062807709088,-0.0009663570870091172,0.008968156029183551,-0.14340884439533408,0.17878959250197113
4.750210762023926,0.009164609667395815,-0.00225332597852472,1.9936478999289038,0.024992917854977332,-0.004525300953736874,0.0063176822364108855,0.040188822905755234,-0.0011206212106814135,0.00894233332501447,-0.13957430342384614,0.19172704857439715
4.770058870315552,0.009672545956388221,-0.002344066218229445,1.9937760402990343,0.025802713107161968,-0.004549224712676504,0.006496267385601109,0.040789442284663066,-0.0012711302809006028,0.008916116045377875,-0.13678117039635085,0.13965665137476435
4.790050745010376,0.009933034066847533,-0.002390066912900049,1.9938464458725458,0.026223145425358623,-0.004574190830231185,0.0067262609399315896,0.040852109816949506,-0.0013813925197400326,0.00888829262393599,-0.13590493929242609,0.04381155519623814
4.810043811798096,0.01046567155406103,-0.002481834178877168,1.9939827468764202,0.027040810782373893,-0.004602891319825589,0.006903745466951369,0.04091435575971996,-0.0014880585126892242,0.008860098500589383,-0.13285887221673942,0.15230335378433324
4.830081939697266,0.011014929073742597,-0.002573642472499575,1.9941289301825247,0.027871341534919148,-0.00461742446312563,0.007235435520371885,0.04133500593481866,-0.0015350952347132783,0.008829624623310332,-0.1299458806906344,0.14564957630525122
4.850261688232422,0.01187023296751439,-0.0027121277961720917,1.9943532590288784,0.029127302656919415,-0.004643154110860535,0.0075931082378936,0.04129511620773851,-0.0016124829501838749,0.00879713104825612,-0.12566472232912274,0.21405791807558305
4.870235204696655,0.012461035410277871,-0.002805318395774027,1.994506878437757,0.02995281036614721,-0.004676154588808304,0.007768723282428402,0.041255740195672436,-0.0016871050152789573,0.008764320818201518,-0.12394216284524351,0.08612797419396134
4.889994859695435,0.012763532632732572,-0.0028514009444597747,1.994587768450199,0.03039275073432334,-0.0046710455345197275,0.007934241110693501,0.04133097365169109,-0.0016598389493005653,0.008730545495780562,-0.12236194149817203,0.07901106735357377
4.910131454467773,0.013379658815454708,-0.0029451519413236475,1.9947481971148155,0.031220115500540917,-0.004703959009646118,0.008108511767005104,0.041405362507853885,-0.00163129639957459,0.008696470347628809,-0.12029221296602932,0.10348642660713558
4.930098295211792,0.013695161191769934,-0.0029915310882205615,1.99483214221361,0.03167066924017987,-0.0047006027870941935,0.008263616912290637,0.04153655256929429,-0.00178960781253203,0.008661542779191825,-0.11890169313303867,0.06952599164953277
4.950588703155518,0.014336890560743576,-0.0030859114303729753,1.994999144517678,0.032502700136899085,-0.004737946524483041,0.008436496121595987,0.04166629658108508,-0.0019441370026156183,0.008626330953036937,-0.11706529566604296,0.09181987334978547
4.970116853713989,0.014997011726059379,-0.003179880420181955,1.9951726475867748,0.033378665370151044,-0.004746285776512106,0.008683518921112209,0.04166078147073586,-0.0019240639621287822,0.008589643486319711,-0.11455385064351464,0.12557225112641568
4.989989519119263,0.01601814894628289,-0.003322204648072973,1.9954386551700227,0.03465848193605633,-0.004776843415762287,0.008987154909314265,0.04171927886627297,-0.0018382195309419765,0.008551433857291242,-0.11151693378393812,0.15184584297882608
5.010121822357178,0.016719666324270712,-0.0034181034087180555,1.995620105995453,0.03549344976578107,-0.004812744594943068,0.009157799454653252,0.04177744980435685,-0.0017518034591343593,0.008512980164080008,-0.11027071151168766,0.06231111361252317
5.0301618576049805,0.01707775692704048,-0.0034655142111324486,1.9957134454428969,0.03594379259423764,-0.004807111663429436,0.00927986145689124,0.042026559071292865,-0.0016828841392912109,0.008474037666626974,-0.10899373992387495,0.06384857939063515
5.050055503845215,0.01780505456327108,-0.0035619883835651127,1.9959007348717588,0.03678679241425084,-0.004840072981800306,0.009448950845695305,0.04227297487011411,-0.0016131048192380214,0.008434862615710019,-0.1074664488808339,0.07636455215205284
5.07012677192688,0.018550547711586728,-0.003658383321224817,1.9960930729331237,0.03766602881542825,-0.004853152666655553,0.009658776303351838,0.04257872990307447,-0.0013761480411920326,0.008394595677087651,-0.10551966298926896,0.09733929457824697
5.090053558349609,0.019700136256181087,-0.003804478933299613,1.9963875975718892,0.03895838780422251,-0.004891161013811749,0.009938096791668044,0.042928388360444526,-0.0013076510062936697,0.008353044392625391,-0.10316635293214427,0.11766550285623456
5.110051155090332,0.02048791280674259,-0.003902559075585126,1.9965880273365515,0.03982041986959526,-0.004916622112120631,0.010104740506862499,0.04327417390298811,-0.0012383203057165604,0.00831129411021657,-0.1018644554378283,0.06509487471579867
5.130029916763306,0.020888452029043478,-0.003951816052505971,1.9966903107704603,0.04026064477373175,-0.004929283572212579,0.010210526627325777,0.04364571073592117,-0.0011694428595493596,0.008269273251054485,-0.10123204782061368,0.03162038086073071
5.1506431102752686,0.0225331887723105,-0.004150030173603427,1.99710642820686,0.04199384211457035,-0.004977919026318689,0.010567457573901344,0.043953636803400115,-0.001109934160989174,0.008225443382835283,-0.098133518524532,0.15492646480408379
5.170105457305908,0.023381876702699256,-0.00424980652149423,1.9973194195165789,0.04287596617241172,-0.004999513921858629,0.010731526736171433,0.04425821144207765,-0.0010493819922705995,0.008181444877567765,-0.09703818875036463,0.054766488708368755
5.18998122215271,0.023812541171776287,-0.004299817137648267,1.997427650649057,0.04331236610644164,-0.0050069140905885205,0.010827238026321634,0.04454877767248336,-0.0008125193770601697,0.008137316545915783,-0.09638256134930145,0.03278137005315873
5.210087537765503,0.02468771747227096,-0.004400102188004795,1.9976458199229297,0.0442062226187453,-0.00502080510273243,0.010989541728961822,0.044836380568358876,-0.0005767666425145983,0.008093026983037098,-0.09480882784739153,0.0786866750954962
5.230054140090942,0.024997847714455512,-0.004435336382080026,1.9977233644079433,0.044511432895060175,-0.005025199044685226,0.011058191161120674,0.04520940194886905,-0.00035169204329361974,0.008048817139160183,-0.09449174202157185,0.015854291290984257
5.250199794769287,0.02589714292386051,-0.004535895743537413,1.9979461350394523,0.04541931832489243,-0.005029989993640845,0.011218724103159935,0.045578486026657844,-0.00012755979666669248,0.00800445118037021,-0.09275012499303736,0.08708085142672406
5.270076751708984,0.026813481659668337,-0.004637402077238804,1.9981728183385197,0.04630418950050705,-0.0050539515080542455,0.011395900967360106,0.04591316371802972,7.307407066888756e-05,0.00795939802428305,-0.09168350584186546,0.05333095755859496
5.290140151977539,0.02774877020962218,-0.0047384531536869825,1.9984023252267733,0.0472257687838497,-0.005050489803038704,0.01155463720454779,0.04624415064022349,0.00027297419987768693,0.007914202015925492,-0.09000371998050571,0.08398929306798752
5.310030221939087,0.02870127171300836,-0.004840648577732253,1.9986356091069244,0.04812227403902928,-0.005074963038148082,0.011727805987474367,0.04661546744857283,0.0004344334018799868,0.007868376885063382,-0.08900968733714443,0.049701632168064336
5.330099821090698,0.029672596453128117,-0.004942524098861945,1.998871955020431,0.049042477109995035,-0.0050802821771402116,0.011891972841918832,0.04695942558340104,0.0006104100879173701,0.007822191016012227,-0.08758455647775643,0.0712565429694001
5.3500330448150635,0.031164266623578536,-0.005095404916439331,1.9992325878137436,0.05043358241955031,-0.0050824201461361,0.01213625847841748,0.047318160696614604,0.0006823788359397203,0.00777507700122185,-0.08541847036679595,0.10830430554802373
5.3700971603393555,0.03218242561144996,-0.00519691199999472,1.9994768648521624,0.05138349826974714,-0.0050680452706939345,0.012291287943068718,0.04767273160688506,0.0007552603516810617,0.007727850902898702,-0.08391596384180522,0.0751253262495366
5.390155792236328,0.03374430212796176,-0.005349637989399041,1.9998496089130695,0.0527936044737152,-0.005066147125885727,0.012533726105552487,0.04805007103824402,0.0008162650589613995,0.007679568105445221,-0.08185934315051169,0.10283103456467657
5.410100221633911,0.03480980916570273,-0.005450793559255524,2.0001018161251847,0.0537583423127384,-0.005049203002405049,0.012686833846324753,0.04842297502595011,0.000878322160732847,0.00763119024106847,-0.08040764721484539,0.07258479678331486
5.430036544799805,0.03534954601823461,-0.005501449389731271,2.0002292117272833,0.0542384717480186,-0.005045802227314033,0.012766848799123199,0.048804112725639864,0.0009057088050945633,0.007582956999528074,-0.07984293680359578,0.028235520562480687
5.451171159744263,0.03699818740278829,-0.005652537679505757,2.0006158181533213,0.05569220609690023,-0.005022036094739619,0.01299924986645414,0.049160746060895044,0.0008802335145081716,0.007533917146274212,-0.07747319493893734,0.11848709323292184
5.4700164794921875,0.038121887234476994,-0.005752803946748853,2.000877306660745,0.05667895152283007,-0.00500466846517379,0.01314943714291682,0.0495130815909504,0.0008568826628668554,0.0074847972713816685,-0.07617374464106241,0.06497251489374634
5.490007400512695,0.03869087342999296,-0.005802772062397667,2.0010092984989627,0.05716953154246809,-0.004995473000601696,0.013227432325150829,0.049869407679639405,0.000767080338568402,0.0074358690193797655,-0.07555241905839294,0.031066279133473707
5.5101213455200195,0.03984426147420224,-0.005902533944594433,2.001275331053551,0.0581704457567514,-0.004981004661844426,0.013375659784445234,0.05022127145180824,0.0006802472808476367,0.007386864266674283,-0.07411900080538558,0.07167091265036785
5.530141592025757,0.04101703834766651,-0.006001583237444274,2.001544554267029,0.05916098889057343,-0.0049564354323226026,0.013528507081525738,0.050562790157549366,0.0005761288719804637,0.007337521516960334,-0.0727012906019322,0.07088551017266909
5.549965143203735,0.0428142605508008,-0.006149503324776033,2.0019538288816974,0.06067082572290763,-0.004926313737579747,0.013751603024956751,0.05091715394739488,0.0003174504360613728,0.007287458534184575,-0.07063754602204453,0.1031872289943836
5.570031642913818,0.04403788386334589,-0.006247983187100108,2.0022303150934966,0.06169266962345081,-0.004922523590874085,0.013896851087261866,0.05126638184622996,6.212141034734302e-05,0.007237338245275456,-0.069664390912342,0.04865775548512641
5.590011358261108,0.04465721538430321,-0.006296516377812591,2.0023697476656994,0.06220370045616494,-0.0049043172834025974,0.013971708091887887,0.05156410631011377,-0.00023709563367982196,0.007187480706332053,-0.06895488164434749,0.035475463399725626
5.6101298332214355,0.04591162183785678,-0.0063946698938658906,2.0026506159970987,0.06323792231387776,-0.004912018616098215,0.014114958673883534,0.051857331018980934,-0.0005323841364057222,0.007137568476778611,-0.06801772471408718,0.04685784651301539
5.630149602890015,0.04654629577684129,-0.006442694781386632,2.0027922753127814,0.06375105510186685,-0.004887992025808836,0.01419026604833314,0.05216738953880558,-0.0008876201903823491,0.00708792010770489,-0.06725175259401217,0.03829860600375046
5.6511242389678955,0.049137563892741626,-0.006636601325031209,2.0033658225957414,0.06582942821690682,-0.004868118247504443,0.014479841554993423,0.05254300432480174,-0.0011815808245152339,0.00703708080396158,-0.06495065665910715,0.11505479674525088
5.67013692855835,0.05046468582434048,-0.006734219405502047,2.003656823451855,0.06688399869652459,-0.004894656474123454,0.014620074468550029,0.0529131307580331,-0.001471583442658795,0.006986204472823691,-0.06453464676229181,0.02080049484076696
5.690010070800781,0.051136130911091614,-0.006781878456030801,2.003803455025522,0.06741507268141078,-0.004873236118172345,0.01469166113129017,0.05325689287525092,-0.001766415526184338,0.006935657209737166,-0.06379357653917861,0.037053511155660246
5.710134983062744,0.052495106408961004,-0.006879715915258031,2.0040986720080007,0.06848360620139539,-0.004911479137822933,0.014829868508078974,0.0535956219723374,-0.0020572157684486413,0.006885074683193679,-0.06337231420772849,0.021063116572506146
5.730093717575073,0.05318232038383002,-0.0069274338297249625,2.004247426139601,0.06901380700960193,-0.004891683772920158,0.014901484286209452,0.05390302465243493,-0.002305726239545907,0.006834823339541539,-0.06267914258441287,0.03465858116578069
5.7500388622283936,0.05598532896984319,-0.007122618585213754,2.0048491774176713,0.07115696499341674,-0.004928975480926743,0.015179869455452985,0.05419482428035425,-0.002527443368960593,0.006783471932807201,-0.06132753448294803,0.06758040507324203
5.770137548446655,0.05741932646859577,-0.007221718204907595,2.0051541280767613,0.07224374293672958,-0.004981714901968629,0.015315025217489406,0.054482241040603556,-0.0027459676302822923,0.006732101122457712,-0.06119584249567822,0.00658459936349054
5.7899932861328125,0.0581444200938464,-0.0072705536409415515,2.005307703763292,0.07278948756403208,-0.004979635849815093,0.015384400899277673,0.054767199152454656,-0.002968196799035436,0.006681111858358844,-0.06072583086183281,0.02350058169227065
5.810109615325928,0.059611182059516,-0.007370754651083389,2.0056167246034393,0.07388764402842085,-0.005041195167965914,0.015517513090121057,0.055047707101886875,-0.0031871980887809848,0.006630104253974758,-0.06061124023490194,0.005729531346543304
5.83007550239563,0.06035267700317865,-0.007420248276039245,2.0057723497488933,0.0744378475147609,-0.00504411310416768,0.015586721979220387,0.05542441105740078,-0.003341611599967256,0.006579480062356134,-0.06021024854725532,0.020049584382331176
5.850726366043091,0.06337412272290988,-0.00762321025159912,2.006401285434594,0.07664894215876962,-0.005143620527593443,0.015854350728619227,0.05585741771180088,-0.0034945915741431584,0.006527839478394712,-0.059665716964288684,0.02722657914833171
5.8700690269470215,0.06491830160290415,-0.007726791658756849,2.0067196745741462,0.07777036828562245,-0.005215022100876197,0.01598439107777279,0.0562841516222522,-0.003645165540770663,0.006476194840821884,-0.059677061435826406,-0.0005672235768861
5.890004873275757,0.06569869520354672,-0.007778558436359957,2.006879924484309,0.07833242441684128,-0.005237368666972199,0.016051012457326284,0.056612948091457116,-0.0038258703251451845,0.006424982777335402,-0.059501219601345134,0.008792091724063589
5.910046100616455,0.06727668794318355,-0.007884082890851733,2.0072022263156826,0.07946792833930746,-0.005315669810042423,0.016178999960846548,0.05693658618296375,-0.0040037788603121665,0.006373767041448062,-0.05954394786283501,-0.002136413074493859
5.930058240890503,0.06807372855901088,-0.007936953089389643,2.0073644416245555,0.08002599861559968,-0.0053435826772669885,0.016245296894711662,0.05720082262849587,-0.004167223553529213,0.006322985274766122,-0.05943427155327008,0.005483815478246612
5.950732469558716,0.07131972778807193,-0.00815335096577868,2.008019497054705,0.08229775555666907,-0.00549560986635173,0.01650220821087391,0.05745664162838555,-0.004330580827956023,0.006271266678382159,-0.059444905990423624,-0.0005317218576772476
5.970087289810181,0.07297719106614507,-0.008264140037542915,2.008350792024799,0.08344941058982393,-0.0055838330249697735,0.016627116433534612,0.05770814367926579,-0.004491295472661829,0.006219557177686508,-0.05956161915476921,-0.0058356582172791605
5.990046501159668,0.07381450266838165,-0.008320017642906023,2.0085174391145197,0.0840273016900939,-0.005625188191922711,0.016690667781877545,0.05796692725086932,-0.004659454981068963,0.0061683283881603795,-0.059577184220495294,-0.0007782532863043201
6.010121583938599,0.07550665911855232,-0.008433464371631389,2.0088524827210166,0.08518919119273866,-0.005720036101138587,0.016813522134584355,0.05822128728497508,-0.004824881320076453,0.006117108427635786,-0.05975078171724624,-0.008679874837547175
6.030110120773315,0.07636138248061901,-0.008490706016244975,2.009021007906721,0.08577176792343187,-0.005763940021607334,0.016876602065071522,0.05848932781007841,-0.004951363019700434,0.006066370112701245,-0.059781392259661725,-0.0015305271207743942
6.050143003463745,0.07808853335451445,-0.008606983410551123,2.0093597498399087,0.08694419830925064,-0.005864213629210571,0.016997422154345496,0.05875298105039297,-0.005075629227925312,0.006015640305923368,-0.05999480242935462,-0.010670508484644792
6.070080995559692,0.0798388503594999,-0.008724981387776104,2.0097010632097194,0.0881132052655878,-0.005959538949777365,0.017121325946949442,0.05899086790771493,-0.005179502618487341,0.005964953963384136,-0.06013599955114346,-0.007059856089441929
6.089947462081909,0.0834102973663135,-0.008967469233838007,2.0103908239239137,0.09046919923389787,-0.006167487336398532,0.017362697683162568,0.05927113387217243,-0.005283120818737802,0.005913440390903968,-0.06059273916784047,-0.02283698083485053
6.110093355178833,0.08523155403730694,-0.009091882414993533,2.0107392571326157,0.09165738710332991,-0.006274169669022978,0.017480451555384732,0.05954690554048103,-0.005384787909604707,0.005861950914947691,-0.06078870171102846,-0.009798127159399428
6.130022764205933,0.08523162173147439,-0.00909199919316245,2.010739270831907,0.09166322772461773,-0.006279331579762248,0.017480224460312957,0.05981342211645355,-0.005468353597710848,0.005811427621507727,-0.06081470889997753,-0.0013003594474536584
6.1515069007873535,0.08894566813868154,-0.009347781989506507,2.0114432534048863,0.09405041271291671,-0.006505228042913953,0.01771517225087145,0.060063664932839655,-0.005554054879864402,0.0057601202074540276,-0.06139395936500325,-0.028962523251285788
6.170093059539795,0.09083870560119683,-0.009479002987764834,2.011798705454908,0.09525415385022465,-0.0066171516574246156,0.01782986182410954,0.06030975869878235,-0.005638017347358849,0.005708842059132833,-0.06159362503709076,-0.009983283604375615
6.18995213508606,0.09275588704452771,-0.0096129205578309,2.0121564933177547,0.09646321836039864,-0.0067415670646987684,0.01794482250906144,0.060536606959053704,-0.0056814913699024085,0.005657714452143397,-0.06194029407666424,-0.017333451978673864
6.210143089294434,0.0946972736639472,-0.00974889103553113,2.012516517903927,0.09767618692314176,-0.006855621611903765,0.01805746579031823,0.06075960969708835,-0.0057237634241039045,0.0056066191156504495,-0.062163534398458786,-0.011162016089727445
6.230063199996948,0.09469733865993861,-0.009749095027979597,2.012516525870918,0.09768153342477966,-0.00686367750004089,0.018057054137953398,0.06100654680459873,-0.005848293296282083,0.005556505837367745,-0.062209859555454994,-0.002316257849810377
6.250059127807617,0.09666318689028695,-0.009887546425032501,2.0128787749152703,0.09890409874289438,-0.006981869735796237,0.018167683340785595,0.061249286942352356,-0.0059705526120803045,0.005506418901259868,-0.06249054967246792,-0.014034505850646362
6.270058870315552,0.09865322448569702,-0.010028807098359191,2.013243350580817,0.10012299368940775,-0.007112851502066111,0.0182803775993138,0.06140997119437488,-0.006109659245268689,0.0054564883174927775,-0.06285208783936191,-0.01807690834469966
6.290020942687988,0.10168440372945782,-0.010245121411159467,2.0137942843124885,0.10196359943843245,-0.007302150087381118,0.01844553420975752,0.0616699732369362,-0.006233806053824929,0.005406262926832347,-0.0633137940516928,-0.023085310616544064
6.310075759887695,0.10373602682437319,-0.010392419336806385,2.0141642729026414,0.10319956193696361,-0.007428048719847976,0.01855315750334279,0.061925538696672014,-0.006355678966262815,0.005356072284784853,-0.06357726975684752,-0.01317378525773627
6.33001708984375,0.10477109090626395,-0.010467167013720118,2.014350113480261,0.10382036020119359,-0.007497268331994079,0.018607425158223206,0.062187997972369756,-0.006527437007278027,0.005306473416810899,-0.06375509777105925,-0.008891400710586694
6.350267171859741,0.10685995297816066,-0.010618429172914536,2.014723319973155,0.10506670659432933,-0.00762951042740394,0.018713058911234683,0.062445880040920686,-0.006696289186887047,0.005256907425522142,-0.06408493392977244,-0.016491807935659075
6.370072364807129,0.11003949471783907,-0.010850232198149998,2.015287227456999,0.10692910003757815,-0.007829138173478571,0.01887362158899126,0.06264055017313505,-0.006867914455388569,0.005207165773965024,-0.06457225467553629,-0.024366037288192643
6.390000820159912,0.11219050886548305,-0.011008146996769932,2.01566576474787,0.10818033933120501,-0.007966438965501154,0.018978157711641436,0.06284499531991179,-0.0070458408678098034,0.005157560128887764,-0.0648851720460839,-0.015645868527380813
6.410043716430664,0.11436669809230994,-0.01116889665164088,2.0160463561090856,0.10943925227331772,-0.008109109323881487,0.01908081319133934,0.06304567212884742,-0.007220681763326305,0.005107994582791201,-0.06524591922582967,-0.01803735898728842
6.430134296417236,0.11546410810767951,-0.011250212414089395,2.0162374583167706,0.1100678855856089,-0.00817935103778918,0.019132535960370768,0.06325280038314716,-0.007449728981917335,0.005059047126667773,-0.0653918262375619,-0.007295350586611349
6.45010781288147,0.11991715644452533,-0.011582858235546329,2.0170068961237297,0.11259381563711245,-0.008466961277072312,0.01933654083315276,0.06346463735448647,-0.007643761061249103,0.005009509140080065,-0.06614546140037314,-0.03768175814056196
6.470098972320557,0.12218173961825003,-0.01175373898129314,2.0173946255420083,0.11386519526881572,-0.00862174891224859,0.019436236022930445,0.0636726976475934,-0.007834445679900662,0.004960017641700317,-0.06650812258980476,-0.01813305947158117
6.489977598190308,0.123323594426422,-0.011840116344637414,2.0175892433855744,0.11450371437029096,-0.008695102808137876,0.01948558506549904,0.06379639985201875,-0.00801697604491619,0.004911173526751105,-0.06665574611959357,-0.0073811764894404774
6.5100531578063965,0.12562643609666355,-0.012015633802332443,2.017979934067501,0.11578085540358785,-0.008857240577567108,0.01958332045957289,0.0639172249712223,-0.008196261127509796,0.00486237324197812,-0.06712604345105744,-0.023514866573193238
6.53005051612854,0.1279547607175633,-0.01219384770021393,2.018372629162356,0.117059082716056,-0.009007791772471008,0.01968156534536456,0.06407632242353356,-0.008300789471214393,0.0048138621998028925,-0.06746082534752684,-0.016739094823470246
6.550148963928223,0.1303087680754016,-0.0123756705498034,2.0187672200098765,0.11834217223479325,-0.009174834131228155,0.019777357853053006,0.06423207276049192,-0.00840307305175027,0.004765396117887488,-0.06792024185859935,-0.022970825553625396
6.570085525512695,0.13149545178561048,-0.012467528900102078,2.018965264795525,0.11898693456025443,-0.009250839257048069,0.019825502137017347,0.0643241492147061,-0.008456446027665206,0.004717579024125606,-0.06805518987721637,-0.006747400930851022
6.5900092124938965,0.13509402825573408,-0.012748652523936617,2.01956220971979,0.12091814424840117,-0.00949934728362982,0.019968226937501454,0.06439371762423138,-0.008492907509474838,0.0046695901929315956,-0.068742239564199,-0.03435248434913163
6.610113143920898,0.1375252744160365,-0.012940340412413005,2.0199625049796355,0.12220669660835162,-0.00966955847415082,0.020061139238618485,0.06446116572480037,-0.008527980651773686,0.004621647695353524,-0.06914549781240398,-0.0201629124102487
6.6301329135894775,0.13875072985289696,-0.013037457944489838,2.020163377054933,0.12285656568525505,-0.009754894672201562,0.02010774747664342,0.06448941024089147,-0.008503389028659315,0.004574365841844422,-0.06933542969379936,-0.009496594069768882
6.650160551071167,0.14122076084071997,-0.013234254846049018,2.0205664437276742,0.12414662118926163,-0.00992471149635227,0.020198762335954367,0.06451583803895623,-0.008478192866804886,0.004527127375139102,-0.06978040966148491,-0.02224899838427774
6.670080184936523,0.14371699005529465,-0.013434716904503957,2.020971411563392,0.125447201869651,-0.01010184731570374,0.020291093934195106,0.06450226560941458,-0.008476255790508714,0.004480213514623222,-0.07022702625259747,-0.02233082955562793
6.690007925033569,0.14750983785748006,-0.013741939840910008,2.0215822135147272,0.12739341924496667,-0.01036656302550233,0.020426593413403332,0.06441540025677754,-0.008497930302042938,0.004433163600578389,-0.07090073840879585,-0.03368560780991903
6.710187673568726,0.15007058351212818,-0.013950972067866711,2.0219916288814344,0.1286808553844969,-0.010536727615877676,0.020514786583247204,0.06432814969191081,-0.0085183141139373,0.004386161386495365,-0.07125128180600226,-0.017527169860320768
6.730057239532471,0.15136116238481662,-0.014057157599181927,2.0221970225849466,0.1293394730927697,-0.01063305624580083,0.020558953674727615,0.06423323030838542,-0.008508335125107624,0.004339836309511126,-0.07149029917497707,-0.01195086844874016
6.751461505889893,0.15658730309290742,-0.014489876777716923,2.023022919441549,0.13193712516516126,-0.01098807541716154,0.02073367554975137,0.06408161787775908,-0.00849195179368537,0.004293083789675168,-0.07237719850378221,-0.044344966440257316
6.770044326782227,0.15923885182483238,-0.014711335542461833,2.0234384484550256,0.13321724348871325,-0.01115774366583336,0.020819070127030125,0.06393025629336693,-0.008474734414660942,0.004246382532916685,-0.07266690049740099,-0.014485099680938696
6.790033340454102,0.1605750433015066,-0.014823740880607363,2.023646849577352,0.1338788754003624,-0.011253316068636823,0.02086103987351038,0.06377858872783843,-0.00838005627821465,0.0042003799895010425,-0.07288765733554747,-0.011037841907324264
6.810096979141235,0.16326536642524694,-0.01505047691047435,2.024064907386366,0.13515293202590828,-0.011419971931909792,0.020944587845167197,0.06362710440578792,-0.00828556043299115,0.004154425184008433,-0.07323239800295234,-0.017237033370243182
6.830047607421875,0.1646210709577566,-0.015165581452686946,2.024274583795033,0.13581602575116783,-0.011516128085704864,0.020986354335730525,0.06344381061497364,-0.008176706941879518,0.004109160682807041,-0.07344156989722217,-0.010458594713491642
6.850112676620483,0.1673500680406514,-0.015397532119341304,2.024695129698459,0.13708307324764246,-0.011678577097735838,0.021068085272756783,0.06326102340247815,-0.008068262327409868,0.004063940450021779,-0.07375476215732135,-0.015659613004959105
6.869994401931763,0.17010611245733534,-0.015633777568882685,2.025117374379082,0.138390043127697,-0.011866040006916575,0.021150727423279354,0.06306022504371002,-0.007963198795545459,0.004019108054729217,-0.07418073338054354,-0.021298561161109397
6.8900306224823,0.17428734480473504,-0.01599412024754425,2.0257537447782,0.14031314978324524,-0.012125972254581355,0.02127204647191461,0.06286932723178494,-0.0078197821816916,0.003974204147251004,-0.0746983640988228,-0.025881535913963027
6.91012978553772,0.17710616898065695,-0.016238194129785284,2.0261799775572147,0.14156863423725832,-0.012280940701001802,0.021351081906223354,0.06267925568696721,-0.007677201583010133,0.003929347153143376,-0.07490426034151332,-0.010294812134525877
6.930016994476318,0.1799516987596416,-0.01648651594615668,2.0266078194669013,0.14286131707225025,-0.012462580703985218,0.02143016243632065,0.06252245346034283,-0.007529820033113916,0.003884907291930856,-0.0752890931786423,-0.019241641856448943
6.950069904327393,0.18426664827004133,-0.016864562673170002,2.027252493670319,0.14476302736276958,-0.012709476470616956,0.021546918518307992,0.06234295555332615,-0.00738052441845907,0.0038404216175790657,-0.07570747717511539,-0.020919199823654644
6.970110177993774,0.18717436547352356,-0.017120218403337682,2.027684197161737,0.14600809676796553,-0.012855602153443946,0.02162328250083046,0.0621640902815517,-0.00723220655216331,0.0037959848321540268,-0.07585872562519969,-0.007562422504214794
6.990028619766235,0.18863834423173617,-0.01724984751725511,2.027900619480021,0.14665042599907022,-0.012946938276519984,0.021660823861759635,0.06198443031595005,-0.007095055166545558,0.0037522649350616834,-0.07603981486626044,-0.009054462053037504
7.010073900222778,0.19158373768943948,-0.01751019619332903,2.0283345834978266,0.1478883228367851,-0.013087475020688171,0.021735432335800383,0.061805349951411334,-0.006958762064909632,0.003708590015356597,-0.07618662711810265,-0.007340612592110496
7.030060052871704,0.19306650742220358,-0.017642187943519773,2.0285521479216624,0.14852739499261977,-0.013177701868797515,0.021772819798948923,0.06164210309533644,-0.00682700352222727,0.0036656224001551836,-0.07635899183904149,-0.00861823604694223
7.051032304763794,0.19905808220708132,-0.018175920073616538,2.02942605771091,0.15101972489348342,-0.013477906901439326,0.021920546429828294,0.061462333161700744,-0.006682030339147601,0.0036223609701830123,-0.07676595939381547,-0.02034837773869924
7.070126295089722,0.20209075721143802,-0.018446805001890484,2.029865190229917,0.1522471779431792,-0.013610105950883009,0.021992561420598584,0.06128305344763211,-0.006538037762041848,0.0035791458790101855,-0.07682772673791671,-0.0030883672050618927
7.09000563621521,0.20361679243421327,-0.018583795454571717,2.0300852976613126,0.15287268125732048,-0.01368999570636684,0.022028039408523065,0.06113391280193939,-0.006380832516806773,0.0035366526489274772,-0.07695078846333114,-0.006153086270721531
7.110125541687012,0.20668646290334117,-0.018858861113875042,2.030526562949241,0.1540938687958034,-0.013816050139327397,0.02209834788106821,0.0609848549172511,-0.006224807054146296,0.0034942017027781336,-0.07701536100131046,-0.0032286268989656364
7.130041599273682,0.20823095167533423,-0.018997934300792982,2.0307477483924266,0.15471621539265643,-0.01389425451126811,0.02213367501902853,0.06081475650196758,-0.006104821839647933,0.003452462720882103,-0.07712751265344053,-0.005607582606503847
7.150770664215088,0.21446893784559956,-0.019559515163126238,2.031635924939514,0.15716376892210454,-0.014159843934494766,0.02227296653881464,0.06065920435026665,-0.00598567865844665,0.0034104684852236367,-0.0773405200938182,-0.010650372018883303
7.170125246047974,0.2176243346898909,-0.01984390127114179,2.032082063566519,0.15837539667564018,-0.014278372153454004,0.02234075632430343,0.06050355496987701,-0.005867264534000349,0.003368517285270215,-0.07735001440784606,-0.00047471570139290264
7.190032720565796,0.21921131717919637,-0.019987362781671607,2.0323056446658234,0.15898510924711456,-0.014346865671586299,0.022374196446989587,0.060408747960711044,-0.005766903723241353,0.0033272910884285206,-0.07741805525735357,-0.0034020424753755663
7.210181474685669,0.2224030947581366,-0.020275446811299853,2.032753791306506,0.16019233028369992,-0.014461204499224134,0.02244033033013278,0.060313239067404635,-0.005667066089401034,0.0032861037526141744,-0.07742501116326173,-0.0003477952954078489
7.230048894882202,0.2240082084248253,-0.020420684659036036,2.0329783854235335,0.16079931672632491,-0.014526280283273338,0.02247356639649423,0.060228135130541656,-0.00554089427589229,0.003245631669300614,-0.077475228217176,-0.00251085269571405
7.250127792358398,0.2272362346708243,-0.020712310075910872,2.033428503181391,0.1620030213988077,-0.014635843750567592,0.022538074598219236,0.06014219278016637,-0.005415598129415071,0.0032051943475527454,-0.07746244531681334,0.0006391450181331138
7.270186185836792,0.23048841046776755,-0.021006588488565497,2.0338799824114147,0.16320672062465794,-0.014754858879864774,0.02260375805262053,0.0600564336781232,-0.0052852081435696835,0.003165228875118512,-0.07750505412615682,-0.002130440467174033
7.2899863719940186,0.2354115380858694,-0.021451885300834545,2.0345595658609046,0.16500452799304363,-0.014920219630514193,0.022699679470283472,0.05995928286040161,-0.0051791048274097045,0.00312528722875586,-0.07749697502607988,0.0004039550038470452
7.3101301193237305,0.23872361397765174,-0.02175131847138653,2.03501418184672,0.16620273415645914,-0.01502274578133689,0.022761786088714955,0.05986117433488047,-0.005073611787339006,0.0030853804809217256,-0.07745462578818207,0.002117461894890482
7.3301098346710205,0.24038842322109358,-0.021901984686503097,2.035241979149683,0.16679422253787102,-0.015077892444031604,0.022792989577485576,0.059750814660922295,-0.0049941581499966855,0.0030461907257916167,-0.07746498497661714,-0.0005179594217530337
7.3504767417907715,0.24710771173683074,-0.022509325155905244,2.0361561987851746,0.1691760597276084,-0.015281505221675718,0.02291594958224294,0.05964946057289188,-0.004846166594173871,0.0030068173449932806,-0.07737989246148835,0.00425462575643909
7.3701112270355225,0.2505031560411191,-0.0228159145806215,2.0366151165171185,0.17036803115978424,-0.015376940819116159,0.022975692482698217,0.05954759819256724,-0.0046972374584128345,0.002967478507349179,-0.07731602245894997,0.003193500126918991
7.390008926391602,0.25220953266315566,-0.022969929020645468,2.0368450263740243,0.17095446339971568,-0.01542273544506475,0.023005131822466524,0.05944002659543672,-0.004532316332944464,0.0029288663740735877,-0.07728487380379834,0.0015574327575818003
7.410100698471069,0.25564050273991723,-0.02327927916416964,2.0373057122111113,0.17214218403185744,-0.01551172691281837,0.023063323279690594,0.05933195327415504,-0.00436671806939221,0.0028902844305517873,-0.07718467702133003,0.0050098391234154604
7.430069208145142,0.25736466065808195,-0.023434750410272542,2.037536514135069,0.1727278835851071,-0.015558033962423192,0.023092557933382687,0.059221489286851385,-0.004224481333906182,0.002852419120627962,-0.07716215601722576,0.0011260502052135024
7.450110673904419,0.26083105523587513,-0.023746746457999967,2.0379989332544985,0.17391120414924421,-0.015641093668317424,0.02314922787816022,0.05911047585735608,-0.004081338842901613,0.0028145797282641337,-0.07703807114875216,0.006204243423679756
7.470135688781738,0.26432085202326744,-0.02406080779407127,2.0384625500576132,0.17508606261733073,-0.01573213300864599,0.02320693166024932,0.058972158123438805,-0.003936623121447608,0.0027772417483078273,-0.07696902879262346,0.003452117806435062
7.490055799484253,0.2695998300941322,-0.024534807495032705,2.039160048587049,0.1768501812947327,-0.015856526995412762,0.02329108012810144,0.05884662718588725,-0.0038004422731502275,0.0027399651812919017,-0.07679457450160676,0.008722714550835065
7.510130882263184,0.27314859466195457,-0.0248526889962606,2.039626415698791,0.178025856066852,-0.015931165966878026,0.023345506874340772,0.058720801034215404,-0.0036632942357328634,0.002702713669812245,-0.07665540666675819,0.006958391742428738
7.530068874359131,0.27672063249415885,-0.02517230226303452,2.0400939019450504,0.1791937247501713,-0.01600921121233297,0.023400141261461053,0.058585811244356946,-0.0034809570218755936,0.002665981554843424,-0.07653617049137429,0.005961808769194832
7.551064729690552,0.2821226942295553,-0.025654300404669685,2.0407971252686385,0.18094656162243777,-0.016116697462875234,0.023480346082201536,0.05840548836813081,-0.00331470628599553,0.0026293283218649555,-0.07630095272693405,0.011760888222012156
7.570101261138916,0.2857532945613273,-0.025977286185120175,2.04126725561358,0.18211287202319706,-0.016181324636516385,0.02353256631361775,0.0582256288934596,-0.0031479226696418307,0.0025926988272541754,-0.07613287119548451,0.008404076572476882
7.59000039100647,0.2875772199402353,-0.026139370633611953,2.04150271181185,0.1826909130278957,-0.016214750518483402,0.023558177688009867,0.05811394256380368,-0.0030045220411790224,0.0025567915672896437,-0.0760666931460321,0.003308902472620723
7.6101226806640625,0.29124265353086454,-0.026464256944804254,2.0419743843310654,0.1838520729024215,-0.01627339969864905,0.023608954606963464,0.058002002815669196,-0.00286025151691931,0.0025209035947763936,-0.07585342292400599,0.010663511101305367
7.630129337310791,0.29308409604113267,-0.026627350619679094,2.0422106189118816,0.18443124832621885,-0.016306692308174785,0.023634372604619047,0.05784766607553346,-0.002701862165678941,0.0024857275732884346,-0.07579438803215632,0.002951744592483152
7.650055170059204,0.3005077013551253,-0.02728217636926389,2.0431580320347233,0.18674516326612553,-0.016422560867770362,0.023734622988227268,0.05766893155464216,-0.0025146926897980006,0.0024504591873560195,-0.0753677214741364,0.0213333279009964
7.670128345489502,0.30425412651855666,-0.027611118033145574,2.043633212235975,0.18789675912362744,-0.01647098068756861,0.0237832796342465,0.05749074552209129,-0.0023272429081384817,0.002415208399745988,-0.07516790495029024,0.009990826192307622
7.690017938613892,0.30613591921426025,-0.027776063931193293,2.04387116296111,0.18846908051429065,-0.016496077255656227,0.023807023142497517,0.05735803722760318,-0.0021506601441160633,0.002380675734851613,-0.07507605426577912,0.004592534225555944
7.710040092468262,0.30991676359252085,-0.028106403814284,2.04434777725758,0.1896149154674847,-0.01653732098853533,0.02385429143938252,0.05722548394524503,-0.001973640757109697,0.0023461561941962115,-0.07480552972429422,0.013526227074245334
7.729995250701904,0.3137206377285719,-0.02843794412968248,2.0448253592842005,0.19076146667019683,-0.016585222476508274,0.023901607601732246,0.05708575161405231,-0.00177876791706802,0.0023121742710848804,-0.07459496475106686,0.010528248661367812
7.751010894775391,0.31754727490871276,-0.028769991332585027,2.0453038516061506,0.1919017863629789,-0.016618847660027636,0.02394751135535281,0.05694625733732461,-0.0015837218603297033,0.002278202903930863,-0.07431402448516478,0.014047013295104271
7.7700817584991455,0.3213967930338032,-0.02910313155008074,2.0457832844494033,0.19304146497333047,-0.016660364060250416,0.02399347211099552,0.056766585891404424,-0.0014103929104603207,0.0022447716578825935,-0.07408495114726277,0.011453666895100412
7.78999400138855,0.32526900395596436,-0.02943678929153773,2.046263611628981,0.19417652403299454,-0.01669274529549241,0.024038403008385566,0.05660602403430998,-0.0012270117602891425,0.0022116132217135463,-0.07381298242360801,0.013598436182737927
7.810129165649414,0.3291638449641031,-0.029770877360842204,2.046744819801557,0.19530704336048588,-0.01671544946304036,0.02408230374313334,0.05644599789314195,-0.0010433602487206998,0.0021784614117954207,-0.07350509667927785,0.01539428721650804
7.830079078674316,0.33111981293266624,-0.02993837047763214,2.0469857668682665,0.1958719586483978,-0.016732523990605843,0.0241042121864628,0.056257755305818086,-0.000884914290666255,0.0021460110418032308,-0.07340363838062158,0.005072914932813255
7.850071907043457,0.3350484911549178,-0.030273187348886517,2.0474682781509532,0.1969952392818863,-0.01674863309376181,0.024146807921757663,0.05607046679238894,-0.00072590205099826,0.002113562917335553,-0.0730556687948809,0.017398479287034085
7.870028734207153,0.33899993412990614,-0.030608854132126523,2.04795168843531,0.1981233532867082,-0.01677531995773563,0.02419009304956515,0.055875608547107304,-0.000563930267445819,0.0020816517472761844,-0.07278466363197422,0.013550258145333949
7.890046119689941,0.34496903454794925,-0.031112662436120594,2.048678357976113,0.19980509955906103,-0.01679916399515753,0.024253116706339752,0.055658495735748895,-0.0004036024081446444,0.0020498567675673505,-0.07228926005614866,0.024770178791277964
7.910131931304932,0.3489762538379561,-0.03144871571982418,2.0491638281619173,0.2009161106540746,-0.016805628074127395,0.024293795890437703,0.055442859378544915,-0.00024271216796906554,0.0020180616798828703,-0.07196464793136759,0.016230606239053813
7.9300267696380615,0.35300600522986897,-0.03178516893355024,2.049650129877911,0.20203108884279786,-0.016816314449196314,0.02433443780347722,0.05512810437622619,-7.618155101593634e-05,0.001986815286044557,-0.0716417880377418,0.016142994681289657
7.950091600418091,0.3570576317713069,-0.03212149933703043,2.050137213913794,0.20313052460482325,-0.016816169480506876,0.024373861620401817,0.054815895365077506,9.074387437953931e-05,0.0019555659767118805,-0.07128216838883805,0.017980982445187088
7.970058917999268,0.35909200051481105,-0.03228982409581855,2.0503810611204396,0.20368535132814666,-0.016818633931641454,0.024393439881152612,0.0545057376486134,0.00023839587713399542,0.0019250085566775348,-0.07113622407795006,0.007297215544399549
7.989959955215454,0.3652277316646675,-0.032794518244185444,2.051113758218057,0.20533638477055535,-0.016817383517212268,0.024451705643229592,0.05419415844672034,0.0003420025678205387,0.001894577325841781,-0.07055635330507792,0.028993538643606875
8.010118007659912,0.36934527753597085,-0.03313079055053562,2.051603169217275,0.20641717150183442,-0.016809498007581778,0.024489292817231376,0.05388490092117937,0.0004467355171637091,0.00186413893869375,-0.07021081088209513,0.017277121149139596
8.030003547668457,0.37141273868119623,-0.03329897190548285,2.051848164704932,0.2069703304157832,-0.016807125062299998,0.024507916132682397,0.05358366975175157,0.0005294227564143579,0.0018343877537182523,-0.07005239768497074,0.007920659856219814
8.050069332122803,0.3755628420488835,-0.03363500294066306,2.0523386879211443,0.20803900941206543,-0.016795698233228535,0.02454430627950137,0.053284587358318494,0.0006134893686069859,0.001804625069824126,-0.06965222806854898,0.020008480821087637
8.070095539093018,0.3797355226558072,-0.033970865217517125,2.052829976537362,0.20913323697555833,-0.016784179343517287,0.024581190815315183,0.0529826370136087,0.0006794275539248642,0.0017754076006757475,-0.06927379944207201,0.01892143132384838
8.090003490447998,0.38603413718055146,-0.034473996815305503,2.0535682346430897,0.21074310689468628,-0.01676012303237916,0.02463486404579116,0.05280426014870882,0.0007922465853961757,0.0017463253806499354,-0.06867214063839544,0.030082940183828732
8.11009407043457,0.39025954830356546,-0.034809033259523954,2.0540612792495425,0.21179741247546133,-0.016743142272584954,0.024669499610740196,0.05262638075394773,0.0009059815492284317,0.0017172287752906259,-0.06831907481615396,0.017653291112074143
8.130055904388428,0.392380667796588,-0.034976252126550623,2.054308068168279,0.21233620543079412,-0.016728256850260404,0.02468662691482738,0.052443980395578224,0.001022623034247992,0.001688810596935485,-0.06812418876486737,0.009744302564329566
8.150334358215332,0.4009166215420604,-0.03564444437756465,2.055296915320428,0.2144448678996778,-0.01668319400342229,0.024754631677892356,0.05226056656919366,0.0011395119099794175,0.0016604108066630625,-0.06726674068249183,0.042872404118776686
8.170066833496094,0.4052159588107121,-0.03597787252257076,2.0557923381419467,0.21548824924780452,-0.016659228197521973,0.024787555749547465,0.052077651249246265,0.0012572017202768715,0.0016319934983078915,-0.06693299843143397,0.016687112552893346
8.189999103546143,0.40737346480655406,-0.03614426568931351,2.0560402862330505,0.2160076310066622,-0.016641755750026053,0.024803347674380045,0.051890150618024974,0.001370950743209021,0.0016042553520615058,-0.06673818349113647,0.009740747014874707
8.210042476654053,0.41170398299326294,-0.036476818986702124,2.0565366721873004,0.21704356509407743,-0.01661319188176717,0.024835155217200994,0.05170337953814063,0.0014855827674470413,0.0015764953471377055,-0.0663125119222685,0.021283578443398454
8.230078935623169,0.4182386462456608,-0.03697445091384478,2.0572824557242537,0.2185944126812934,-0.016565569372813862,0.024882622930564324,0.05149994125077343,0.0015849226182954243,0.0015491765155925107,-0.06568327973377164,0.03146160942484322
8.250104904174805,0.4226208209702605,-0.03730543864159795,2.057780416195723,0.21962238466814532,-0.016532868771128043,0.024913333074675154,0.051297408045777905,0.0016853119234516315,0.0015218340103880796,-0.0653108395040114,0.018622011488012014
8.27017331123352,0.4226207337285804,-0.03730536340362572,2.0577804087414453,0.2196168452706916,-0.016529179943590863,0.024912727058824417,0.05110447124258362,0.001763878099376992,0.0014952717814365045,-0.06534270099580475,-0.0015930745896675091
8.28998589515686,0.4292323255466777,-0.03780041633880343,2.058528487084584,0.22115074761091527,-0.016474524854398535,0.02495802245532453,0.050911742529872864,0.0018596489280313625,0.0014688575785828792,-0.06464869752289149,0.034700173645663135
8.31012487411499,0.43366551003349535,-0.03812952846890173,2.0590279395427817,0.22216706095257463,-0.01643636542345586,0.024987135218929417,0.05071970701736839,0.0019564684152511684,0.0014424139374309695,-0.06426951792505076,0.01895897989203643
8.330065488815308,0.43588967412279367,-0.03829370847772565,2.0592778869367483,0.22267126751313124,-0.0164138343743329,0.025001427509160082,0.0505406966460022,0.0020062264248499784,0.0014166289966464146,-0.06407642424588778,0.009654683958149057
8.350097417831421,0.44035319570843695,-0.038621580518958365,2.059778197092047,0.22368029635428874,-0.01637319830845482,0.025029501958863564,0.05036228754745752,0.002057658421816307,0.001390810432816475,-0.06363541227740122,0.022050598424327994
8.370051145553589,0.4448369063170891,-0.038948553146826034,2.0602791018881064,0.2246865351559032,-0.016329714579093775,0.025058036297855784,0.05016833751387567,0.0020726736647115377,0.0013655378769808905,-0.06322092183764827,0.020724521987647293
8.390109777450562,0.4538644283923856,-0.039599860511782076,2.061282548667658,0.22668890371736397,-0.016240761474240473,0.025113186126014965,0.04994255483003279,0.002075692559164436,0.0013403198299247858,-0.06234033929912908,0.044029126925959616
8.410104990005493,0.4584081799876039,-0.03992426028769074,2.061785078771136,0.22768550733241888,-0.016199198471845516,0.025139740041607975,0.04971801314146292,0.0020809858068866105,0.0013150657946511724,-0.06199392401281134,0.017320764315886805
8.430048704147339,0.45840802483790444,-0.039924110293757885,2.061785068688984,0.22767674874709842,-0.016193856117530943,0.025139053782062465,0.04941123201112211,0.002112875177908612,0.0012905601818959526,-0.062019873560186234,-0.0012974773687446373
8.450037717819214,0.46297142169596195,-0.04024756271753738,2.0622881062408887,0.22866192037180766,-0.0161512801238725,0.02516461958579184,0.04910622587332557,0.002144716146291426,0.001266013393044707,-0.06157415882624839,0.022285736696892045
8.470077991485596,0.46755474058624313,-0.040569713596387336,2.0627916726978293,0.22964896811293067,-0.016096932209838304,0.02519028164145845,0.04882636092030015,0.0021804137723760346,0.0012420133300943188,-0.06113740537947976,0.021837672338431702
8.490196943283081,0.47446651745813007,-0.04105136150023971,2.0635479548294398,0.23112162249509194,-0.016022965626719288,0.02522775930353027,0.048616779953179326,0.002259191145965161,0.0012181717141227005,-0.060497402106687304,0.03200016363962277
8.510152578353882,0.47909865933056456,-0.04137136375067576,2.0640527520581675,0.23209186871834633,-0.015976998688301706,0.025251883947979652,0.04840797093166587,0.0023374097588851742,0.0011942853358815097,-0.06012769842070709,0.018485184299010804
8.530097007751465,0.48142221914837996,-0.04153079034647381,2.0643053365050297,0.23258021815724014,-0.01594666440551271,0.025263776973911262,0.04820832815884253,0.002412755473997031,0.0011710346514779571,-0.05992477321635592,0.010146260217558378
8.550775527954102,0.48608345190024094,-0.04184923608665027,2.0648108446989473,0.23354239372612723,-0.015897660205980605,0.025286964752900258,0.048009337328401416,0.00248757735652377,0.0011477351832497379,-0.059504900193998456,0.020993651117873213
8.570087194442749,0.4907642659528452,-0.042166582184887995,2.0653168490439358,0.23450953320687337,-0.015844926085357307,0.025310627436689388,0.04780379434579078,0.002554710970880646,0.0011249768949672158,-0.05909337480091681,0.020576269654082324
8.589976072311401,0.4978211947581372,-0.04264077638269154,2.066076697026662,0.235946743086439,-0.015768510137864535,0.025344831398132435,0.04775611871904826,0.0025125284272444733,0.0011023784140808137,-0.05847525014374222,0.03090623285872951
8.610172033309937,0.5025496776044062,-0.04295564684139646,2.066583812621115,0.2369013785695223,-0.0157186729738029,0.025366652544067784,0.04770722754915278,0.002471356009564889,0.001079727509417481,-0.05810760033012263,0.018382490680979302
8.63009762763977,0.5049209794597489,-0.04311261974137793,2.0668375440513396,0.23737473343550922,-0.015691324995107062,0.02537754676153964,0.04766102366267965,0.0024448092681767977,0.0010576995269187953,-0.057927511956263,0.00900441869298163
8.650170087814331,0.5096780031982006,-0.04342595900276763,2.06734530505512,0.23832748275069443,-0.01564268653864421,0.02539848000202002,0.04761372606903994,0.0024191907711419397,0.0010356151983746686,-0.057524526610997384,0.020149267263280812
8.67005467414856,0.514453588144908,-0.043737921009197975,2.0678535188193012,0.23926594269588344,-0.015583564394167738,0.02541994494290519,0.047512855279235204,0.002435385602466762,0.0010140681402078858,-0.05710992441104823,0.020730109997457724
8.689976215362549,0.5216524771931484,-0.04420401514095474,2.0686165967470167,0.2406777443250779,-0.015501801554942397,0.025450840497368156,0.047508482564164144,0.0024016825292001603,0.0009926830416962244,-0.056501715180430345,0.030410461530894217
8.710124969482422,0.526475533418603,-0.044513573023592816,2.0691258106648895,0.24162785924447158,-0.015454095133023508,0.025470479806012258,0.047502789901473545,0.0023691551969209157,0.0009712378815390042,-0.05615609329398463,0.01728109432228564
8.73009729385376,0.528893608885786,-0.04466769320852922,2.0693805753872163,0.24208558755466453,-0.015420962532592595,0.02548031292385999,0.04743608307623678,0.0024744090829403034,0.0009504034809670094,-0.05596283411232328,0.00966295908306769
8.751297950744629,0.5386140049882608,-0.04528223332208454,2.0704005788247635,0.24395749288273894,-0.015314099989922269,0.02551885594153712,0.04731599073389703,0.002531780547912033,0.0009296635922656074,-0.05514130636899939,0.04107638716619455
8.770060300827026,0.5435026100219043,-0.04558800514920201,2.0709111404904523,0.2449026091084199,-0.01526289202956137,0.02553724128131333,0.04719557883321319,0.002588988236159203,0.0009088598056924716,-0.05481615981754562,0.016257327572688496
8.789996147155762,0.5459533659619187,-0.04574040790289519,2.07116655597636,0.24535599893916235,-0.015233434269684704,0.025546062819720446,0.04711285011162266,0.002704527601292545,0.0008886639578245058,-0.05463975051898684,0.008820464927938865
8.810018301010132,0.5508699029657033,-0.046044528024380846,2.071677653615764,0.24629742369382018,-0.015178195695205064,0.025563633575393443,0.04702952653561259,0.0028191827602195773,0.0008684003945442441,-0.05423623818769263,0.020175616564710452
8.830086946487427,0.5533347569185217,-0.04619621929058729,2.071933341966411,0.24675310231829314,-0.015150617364702594,0.02557238056613883,0.04688920504729478,0.0029385208141678404,0.0008487356707607242,-0.05407636781410785,0.007993518679239031
8.850163459777832,0.5582791874500022,-0.04649863602649947,2.0724449580103075,0.24768948301703808,-0.015090661674661056,0.025589158036205005,0.046748861262895305,0.003056886433814456,0.0008289994999593935,-0.05365949981217044,0.020843400096870468
8.870135307312012,0.5632418327481137,-0.04680023228780588,2.0729569369409733,0.2486122194567792,-0.015038948110322758,0.025606319051264734,0.04670589162389432,0.003160217712641386,0.0008097924923910423,-0.053309002330352406,0.017524874090901754
8.889977216720581,0.5732232572504812,-0.047399769768682515,2.0739818602057847,0.25046887573308857,-0.014923957533017253,0.02563906362518147,0.0466519696597792,0.003288157450543924,0.0007906925810745928,-0.05251862263114271,0.03951898496048489
8.91010069847107,0.5782419615379086,-0.047697582714439024,2.074494798339736,0.25140137151296804,-0.014856907639821433,0.025654685854737267,0.046597520696801904,0.0034169781916419143,0.0007715180026400247,-0.052153640701507964,0.018249096481737226
8.930074453353882,0.5807579109524815,-0.047846253846833255,2.0747513749254742,0.2518551341652214,-0.01482892357921805,0.02566195406463803,0.046499220585453034,0.0036072464367349383,0.0007529349010555082,-0.05199531634272381,0.007916217939207826
8.950169086456299,0.5858043069201578,-0.04814209818506536,2.0752647633509493,0.25278413450895637,-0.014754876049996644,0.02567682627798456,0.046400792565694564,0.0037975045938408746,0.0007342734487646711,-0.05154540978192346,0.022495328040017526
8.970052242279053,0.5883341010915427,-0.04828988147044795,2.075521569761245,0.2532367509968042,-0.014727792550969647,0.02568405467768588,0.04629091966509371,0.003952255493314925,0.0007161944952109859,-0.051400810740234615,0.007229952084442104
8.989980697631836,0.5985002392228552,-0.048876758130787686,2.076549526041529,0.2550783788097572,-0.014591122023419917,0.02571302620398278,0.04617859633525105,0.004119312135905386,0.0006982295973799888,-0.05054305006637705,0.0428880336928783
9.010075330734253,0.6036110350267366,-0.04916774556223767,2.077063925009746,0.256000826943842,-0.014507063635424141,0.025726810460381947,0.04606620598800513,0.004286557930816086,0.0006801824006291499,-0.05013975197729703,0.020164904454000876
9.030071020126343,0.6036108818104663,-0.04916800395003291,2.0770639183941064,0.2559943564851858,-0.01451365760770044,0.025726349426912907,0.045963507590665316,0.004427861281989406,0.0006627625952455823,-0.050208564885780405,-0.0034406454241686646
9.050821781158447,0.6087399547855802,-0.04945738208427526,2.077578576769516,0.2569125980624022,-0.014423683111920466,0.025739429760062996,0.045860618473356964,0.004569672593425505,0.0006452563965623549,-0.04969905861169055,0.02547531370449274
9.070094347000122,0.6138872854654125,-0.049745935686293666,2.078093513908973,0.25782683484965563,-0.014355722560345691,0.025752677243406644,0.04576597305145509,0.00471117216270336,0.0006282692252834345,-0.04932413868105856,0.018745996531599474
9.090014934539795,0.6216426372988845,-0.05017505396521117,2.078866386364166,0.25919758316811975,-0.014228762148196378,0.02577165444143921,0.04567044267071017,0.004906359096821351,0.0006114482721504514,-0.048645526104004855,0.033930628852685274
9.110050439834595,0.6268357166632258,-0.05045863493555484,2.0793819406167295,0.2601100335750413,-0.014128685041134079,0.02578371444409675,0.04557453542647897,0.005101312584127375,0.0005945370204970792,-0.04818278176985036,0.02313721670772484
9.130013942718506,0.6320468859949975,-0.050740946838756365,2.07989774008569,0.2610169596215408,-0.014044344119834578,0.025795613059603095,0.04546584808711291,0.005277293615566584,0.0005781444369903589,-0.04776120470794831,0.021078853095102268
9.150118827819824,0.6372763110959877,-0.051020766532438006,2.0804137668782605,0.2619251871717828,-0.013937038784304055,0.02580701124460583,0.045356856420890025,0.005453232788380272,0.0005616585981292489,-0.04725972806130496,0.025073832332167534
9.170114517211914,0.6398977404377562,-0.05116039186353671,2.08067186740009,0.26237494107497467,-0.013896021041867447,0.02581254989456471,0.04521369333683845,0.005619189962101915,0.0005457294899178201,-0.047079817767113674,0.00899551470956439
9.189986228942871,0.6477893564747838,-0.05157534965356343,2.0814465025755515,0.26373084249411044,-0.01374318710397674,0.025829158939481196,0.04506653686213004,0.005786219097436013,0.0005299647421088669,-0.04631819654972702,0.03808106086933272
9.210097551345825,0.6530729768138878,-0.051849045021204423,2.081963190691418,0.2646307003812747,-0.013625793207531654,0.025839599772565468,0.04491922638959923,0.005953154847578526,0.0005141023749574049,-0.0458202380187247,0.024897926550115912
9.230069160461426,0.6557215653391869,-0.05198547861163585,2.0822216159986158,0.2650797470071609,-0.013577886363366005,0.025844692760473693,0.04477958625506747,0.006146714022896995,0.0004987888951500039,-0.04562396084387421,0.009813858742524495
9.250119924545288,0.6610321068794747,-0.052255794113340845,2.0827386085856525,0.26597394103795324,-0.013453020022536129,0.0258545145617688,0.04463979119577352,0.0063398493960146775,0.0004833744934516471,-0.045057074017615495,0.02834434131293584
9.270084857940674,0.6663607983046116,-0.05252440033883301,2.083255816168704,0.26687279883711135,-0.013344955639261665,0.025864575808060338,0.04449794081689529,0.006528854663893549,0.0004684651379046397,-0.044579969785188744,0.023855211621337524
9.28999948501587,0.6743872016958815,-0.05292232066650549,2.084031975310532,0.26821185953940135,-0.013161670336502484,0.02587881613779576,0.044331416239172576,0.006753158717968997,0.0004537189704357693,-0.04376955834562368,0.040520571978253095
9.310096025466919,0.6797602940716195,-0.053184188533242624,2.0845496413887576,0.26909682317595435,-0.013024371679868429,0.025887742181463395,0.04416495873289762,0.006976555948711851,0.00043886801146889666,-0.043225270865995924,0.02721437398138793
9.330107688903809,0.6824536086440696,-0.053314515271875335,2.0848085429729624,0.26954088407177074,-0.012964911050687066,0.025892043617014467,0.0439934745081063,0.007203570244553992,0.0004245535247700216,-0.04300091601114309,0.011217742742641867
9.350740194320679,0.6932708205460305,-0.05382821492267385,2.0858445743046903,0.27130858812111797,-0.012695784782261983,0.02590912016394117,0.04385257106006825,0.007442619818478049,0.0004103713322925214,-0.04182254582766465,0.05891850917392194
9.370021343231201,0.69870575341491,-0.054080626214905836,2.086362837831313,0.27218422814404325,-0.012544551420379288,0.02591718486194569,0.04371138427294611,0.007680526029705312,0.00039608043150724827,-0.04127514892637585,0.027369845064439957
9.390008687973022,0.7014298953117121,-0.05420606737419595,2.086622014924694,0.27262351316332545,-0.012476323915611032,0.025920583478212165,0.04360565049986743,0.007926261272021768,0.00038232256284289,-0.04102687000241412,0.012413946198086556
9.410087823867798,0.7068910796247719,-0.05445399227863478,2.0871405021359783,0.27349456360622854,-0.012315351458174747,0.02592809141767289,0.04349928964394259,0.008170782349164145,0.0003684528197391185,-0.04037121426941104,0.032782786650153994
9.430101871490479,0.7090805494765602,-0.0545527123588628,2.087347933705919,0.27384451196705456,-0.012260773352248752,0.025930771743146327,0.04334197384597555,0.008450553932486187,0.0003551133691601614,-0.04019356601314383,0.008882412813360219
9.450123071670532,0.7145660976258355,-0.05479621914612686,2.087866619268401,0.27470977876755787,-0.01208897829645195,0.02593773965670883,0.0431847159996863,0.008728677318317933,0.0003416589005078118,-0.03950522299653603,0.03441715083039032
9.470037698745728,0.7200691969822877,-0.055037336200915325,2.0883854516650375,0.2755788695589448,-0.011939284842229912,0.025944688239660146,0.04301750587105986,0.009012482937677084,0.0003286963376586896,-0.03893246533633654,0.028637883009974274
9.489981889724731,0.7283561543394543,-0.055392186063926555,2.0891639414429553,0.2768749254188824,-0.011687118799923958,0.025954488373705214,0.04286844680243485,0.009305508935140552,0.0003158941383944174,-0.03795437341665897,0.04890459598387853
9.51013708114624,0.7339022166114483,-0.055624047891283675,2.0896830935298265,0.2777308056856541,-0.01149809306105587,0.02596067724323204,0.04271961835410046,0.0095967714344276,0.0003029730902386899,-0.03728444768524719,0.03349628657058901
9.530100584030151,0.7366819063755965,-0.055739154930977655,2.0899427143599727,0.278163821909233,-0.011416990534016198,0.02596353937648426,0.04257538292785327,0.009856058882982134,0.0002905635830578191,-0.037012077896778184,0.013618489423450342
9.551101446151733,0.7478430782101377,-0.05618903465148131,2.090981490677224,0.27987807233792117,-0.011047201201675513,0.02597510225756742,0.042292317532476136,0.01004293305028752,0.0002782919776663476,-0.03558025790954078,0.07159099936187019
9.57006025314331,0.7534490793205518,-0.05640795773875299,2.0915010475565214,0.2807210998958209,-0.01084449181607849,0.02598054435782781,0.042010675179522554,0.010227646015741727,0.0002658976857257708,-0.03491208043878702,0.033408873537688066
9.590033292770386,0.7562587159722339,-0.05651624353120416,2.0917608467898323,0.2811485040960194,-0.010750435953001127,0.025982490556337914,0.041761025889135814,0.010381211297021131,0.00025401187481470137,-0.034601508370524225,0.015528603413139663
9.610091924667358,0.7618900216706643,-0.05672916586357336,2.0922805466046572,0.2819812372230952,-0.010541291613131923,0.02598745088800054,0.04151246868521668,0.01053291265766138,0.0002420004400476455,-0.0338312304831998,0.0385138943662211
9.630098819732666,0.7647125461388948,-0.056834316802397165,2.092540421076792,0.28241366067835433,-0.010441474689822358,0.02598944754800673,0.04142041994392139,0.0107137933687526,0.000230489841375754,-0.03351050912056275,0.016036068131852765
9.64993691444397,0.7760432569766414,-0.05724368866964823,2.093580182017666,0.2840913141518273,-0.010020777503866145,0.025998498165411978,0.04099027067773603,0.01051498005729568,0.00021911914963544484,-0.031956559872834855,0.07769746238639463
9.670129776000977,0.7817332527959654,-0.05744201437282728,2.0941001950402787,0.2849068445299147,-0.009812448521669027,0.026002765762059475,0.04056329532071154,0.010318267632862966,0.0002076190308673997,-0.03129271321874727,0.03319233270437927
9.689975500106812,0.7845848570820918,-0.05753934662075795,2.094360208250351,0.2853240530756538,-0.009700794466250625,0.026004035836449176,0.04020007123598134,0.010271575008362994,0.00019661546046865501,-0.030930994849197813,0.018085918477472873
9.710098505020142,0.7902993540775445,-0.05773131128228167,2.0948803275499803,0.2861244446943219,-0.009495825619845414,0.02600785700698568,0.039839538512854156,0.010225394852725521,0.00018547963903831305,-0.03019825553406541,0.03663696575662012
9.730092287063599,0.7960313424272133,-0.057917864163386595,2.0954005119515138,0.2869586182064038,-0.009255388994128779,0.026011255512383865,0.03966766845269869,0.010483247777492682,0.00017481813408759425,-0.029379158973803055,0.04095482801311778
9.750033855438232,0.8017784368936188,-0.05810085824419451,2.0959207713078714,0.2877502573066035,-0.009043168950393697,0.026014644135444902,0.039496330181209675,0.010738288834938181,0.00016402178666813884,-0.0286647044277748,0.03572272730141268
9.770076751708984,0.8046588820770584,-0.058189938275677505,2.0961809237435522,0.28817096560480354,-0.008910939559763627,0.026016134069344894,0.039358771037313126,0.011008107231753491,0.00015370699269411458,-0.028239940245111228,0.021238209133178643
9.789945602416992,0.8133224536003989,-0.05845211381964686,2.0969614863051245,0.2893700808547417,-0.008573521119510161,0.026020934847297904,0.039150406305855305,0.011286108044564883,0.00014354127496077657,-0.02705691895326856,0.05915106459213337
9.810162782669067,0.8191176714534549,-0.0586213086406137,2.0974819330256715,0.2901510129465108,-0.008345044540599237,0.0260237028596118,0.03894295497615972,0.01156103921132215,0.0001332369435737275,-0.026318418254245746,0.036925034951140745
9.830066919326782,0.8220215023803479,-0.058704269289458884,2.097742180365609,0.2905486010553842,-0.00823002228070555,0.026025021527371114,0.0387077403224172,0.011837142893796296,0.00012340603917789127,-0.025958709830981253,0.017985421163224657
9.850048542022705,0.8336749599768126,-0.059024684742948225,2.098783289940989,0.292108114896073,-0.007770728977385535,0.026030120597167385,0.038503631124209826,0.012128353654453342,0.00011371346808896126,-0.02436177521015681,0.07984673104122209
9.870151042938232,0.8395248094408521,-0.05917765440285623,2.099303914442336,0.2928761542879993,-0.007525277314469383,0.026032296754800788,0.038300465138000096,0.012416263549585678,0.00010387868337882286,-0.023601333489709386,0.038022086022371226
9.889981508255005,0.8424556444901411,-0.05925256310641929,2.099564224162317,0.2932632507565985,-0.007407038028998198,0.02603267642782387,0.038283019194169925,0.012625779273675154,9.451512295976643e-05,-0.02323587661354054,0.018272843808442296
9.910019397735596,0.8483285648972753,-0.059398164783247644,2.100084895962413,0.294028728554164,-0.00715243392217489,0.026034471887176076,0.03826459848274861,0.012834498788244577,8.500677153459162e-05,-0.022376808859144948,0.042953387719779634
9.930062770843506,0.8512708814499002,-0.0594694753036199,2.1003452340415443,0.29441358730821193,-0.007034379216455729,0.026034962314983517,0.038217704788443586,0.013024735700580943,7.596249735793754e-05,-0.022018670394871265,0.017906923213684145
9.949971199035645,0.8630776222585225,-0.05974112020936473,2.101386695040884,0.29592967976168266,-0.0065271685291703055,0.02603794735341284,0.037991794611253044,0.013342299041391885,6.705770642152866e-05,-0.02030265036453116,0.0858010015170052
9.970057964324951,0.8690037991974513,-0.059868974136178206,2.1019074667984152,0.2966872641269704,-0.006257178062848213,0.026039198222445378,0.03776679332547246,0.013656126081842777,5.800456360403831e-05,-0.01947682449082011,0.04129129368555251
9.990025758743286,0.8719721188979938,-0.059931186360559136,2.102167837828864,0.2970520654093898,-0.0061281634013228585,0.026039009275643205,0.037737948522225326,0.013858752924419635,4.9411569018653924e-05,-0.019084559593463446,0.019613244867833224
10.01006555557251,0.8779207058299553,-0.06005096440950483,2.102688627316275,0.2978065287764277,-0.005848968733987337,0.026039910319310758,0.03770824548963547,0.014060580719287227,4.0667753720400975e-05,-0.01816333456145669,0.046061251600337805
10.02998971939087,0.8809003668481717,-0.06010932538401158,2.1029490199875087,0.298174588985154,-0.005722429476894719,0.02604003600983056,0.037652928207714924,0.014305885805786728,3.237576012324541e-05,-0.017783934117129974,0.018970022216335813
10.050005435943604,0.8868713855026933,-0.06022089650923474,2.103469826622389,0.29892709054357974,-0.005433869794978831,0.026040599327462458,0.03759715122470358,0.014549860989170197,2.393056249062657e-05,-0.016838774268664203,0.04725799242328854
10.070188760757446,0.8928568409209431,-0.060327648701586495,2.1039906518889206,0.2996630559721908,-0.0051647589421753015,0.02604124152414952,0.037547582689293084,0.014860026482759494,1.5927624538621562e-05,-0.015983537078519294,0.042761859507245426
10.090025186538696,0.9018631085439621,-0.06047652632155528,2.104771900870802,0.30077396943704765,-0.0047342389131981855,0.02604179924760697,0.03749569920813354,0.015153039718483141,8.063033315862104e-06,-0.01459589781389381,0.06938196323127421
10.110102415084839,0.9078860835851414,-0.060568161057578306,2.1052927379362174,0.3015233598371068,-0.004428264636878121,0.026041880556564916,0.03744324612835774,0.015444055482604396,4.185979403761817e-08,-0.013646610447794583,0.04746436830496137
10.130027532577515,0.9109025760672224,-0.060612203243106955,2.1055531565831926,0.30187971213664627,-0.004286115022341219,0.026041744618179204,0.037391695844816615,0.015770701549728833,-7.539794005890424e-06,-0.013219587055806503,0.021351169599403974
10.1500563621521,0.9169476451889073,-0.06069474974763304,2.106073989454203,0.3026270266300194,-0.003967454659495127,0.026041516681125212,0.03733967534620585,0.01609493290566675,-1.5280290117383526e-05,-0.01219428691600255,0.05126500699019765
10.170077323913574,0.9230067344760077,-0.060772099062561785,2.1065948063445155,0.3033486058676661,-0.0036744279542769037,0.02604094808399933,0.03706256767749016,0.016335292575919595,-2.2583717375048766e-05,-0.011275229546541254,0.04595286847306479
10.190003633499146,0.9321234327002244,-0.06087578967176974,2.1073760303114772,0.3044464641702514,-0.0032046249600821927,0.02604038530611738,0.03680712386480816,0.01663902196528948,-2.9753214274440088e-05,-0.009782646382569204,0.0746291581986025
10.210100173950195,0.938219706448812,-0.060936534300620605,2.1078968315808733,0.30518006387417207,-0.0028688376649535392,0.026039717194576754,0.03655307950892546,0.016939100219281175,-3.708487040512622e-05,-0.008747758218925483,0.051744408182186064
10.230048179626465,0.9412731275956797,-0.06096499531972545,2.108157228360975,0.3055381641884328,-0.002714222556358667,0.02603927698754841,0.03632498191850193,0.01724548911194423,-4.39885100631173e-05,-0.008283286166339554,0.023223602629296458
10.250043869018555,0.9473911407248095,-0.0610158104303918,2.108678004634557,0.30626239209720085,-0.002366279426511723,0.026038326810791608,0.036097993683997145,0.01754821448050629,-5.105645297099855e-05,-0.007179211735922397,0.05520372152085784
10.270096778869629,0.953523977628263,-0.06106080057520688,2.109198761550194,0.3069943101962255,-0.0020421192175487093,0.026037293337984383,0.03609999679970791,0.01784528332104921,-5.7697385130493814e-05,-0.006170225367660986,0.05044931841307054
10.289971828460693,0.9627502782043612,-0.06111476081331398,2.1099798526822138,0.30808311886640105,-0.001524793704294202,0.026035465983836402,0.03609720616819329,0.018149136713666306,-6.420711305081741e-05,-0.0045452629041080606,0.08124812317764629
10.31005334854126,0.9689191597782991,-0.061141606722493566,2.1105005487181008,0.308805025322531,-0.001158792320707959,0.026034115347306035,0.03609324481077299,0.01845060473009154,-7.088436287636694e-05,-0.0034202231083302337,0.05625198978889134
10.330033302307129,0.9751022760994581,-0.06116198212146553,2.111021208668933,0.3095202638117561,-0.0008092148577768787,0.026032398262957095,0.03605862709143723,0.018782993937190618,-7.71375740814407e-05,-0.0023360783093520077,0.0542072399489113
10.350059509277344,0.9812998907573444,-0.061174387799102795,2.111541840781306,0.3102410841916378,-0.00043025417423365705,0.02603079156480624,0.03602329159608532,0.01911261360813182,-8.356041452154082e-05,-0.0011591333231333323,0.05884724931093377
10.37009572982788,0.9844036786876748,-0.061178306496646497,2.1118021399769047,0.31058713466591775,-0.00025309753711685206,0.026029791900909035,0.0358003117577462,0.019357503700248524,-8.956950073220593e-05,-0.0006209557128848964,0.026908880512421796
10.390028715133667,0.9937370637990738,-0.06117789363375023,2.112582998208678,0.3116499027940361,0.0003097233070218604,0.02602719601791289,0.03555246615482061,0.019576782039036886,-9.545311646516467e-05,0.0011442604801414902,0.08826080965131933
10.41004753112793,0.9999771558865439,-0.06116776933698908,2.113103522637529,0.31235848389314413,0.0007034276794475661,0.026025226679431974,0.03530584816263797,0.01979317534054584,-0.00010150941284873695,0.0023568522012564763,0.06062958605574931
10.430094718933105,1.0031023996069595,-0.06116017944047953,2.1133637583875124,0.31270705122500825,0.0008914417028371474,0.0260237902884538,0.035074498976727535,0.02002137065647006,-0.00010715627145636305,0.0029317880411294794,0.028746791993650156
10.450943946838379,1.0156392453862606,-0.06110904275863489,2.114404616421932,0.3141207651400775,0.001682058973170607,0.026019284984672715,0.03484532293825814,0.020257488807983545,-0.00011267042663012088,0.005399298155359222,0.12337550571148714
10.47006106376648,1.0219286145374695,-0.06107133449334324,2.114924979211131,0.3148153902075658,0.002089544412637658,0.02601697496872931,0.034617390922511405,0.020490546006631503,-0.00011836036516789985,0.0066551340499692024,0.062791794730499
10.490002155303955,1.0250787580975012,-0.06104945351083293,2.115185095915916,0.3151669544220013,0.0022956899158160897,0.026014306957911376,0.03440101115467728,0.020734545968514217,-0.000123639589524881,0.007292568085860207,0.03187170179455023
10.51017951965332,1.0313889630135868,-0.060999376695955315,2.115705356966311,0.31585281930216086,0.0027127942913292174,0.026011779891579902,0.03418564578897659,0.020975361997676054,-0.0001290965691712461,0.008590452654947622,0.06489422845437076
10.530025959014893,1.0377134252842923,-0.06094117437813851,2.1162255101017413,0.3165484519470104,0.003128283224244083,0.026007854704275007,0.03393191884026712,0.021243347263729406,-0.00013413862600365203,0.009881393563960561,0.06454704545064693
10.549997568130493,1.044051163863305,-0.060874342351781845,2.116745640022966,0.31722456495848494,0.0035558011510478066,0.026005120012064346,0.03367962006285546,0.021507869382504624,-0.00013936045641302133,0.011205342437922816,0.06619744369811276
10.570076942443848,1.0472254439708653,-0.060837878988144,2.1170056684187686,0.3175696634007238,0.0037686625431709903,0.026003251297857678,0.03349518856821051,0.021800925790896757,-0.0001441869881476472,0.011855292668006445,0.03249751150418145
10.589993953704834,1.0567681086646001,-0.06071537372027476,2.1177856971820757,0.3185869387989657,0.004413012608621432,0.025998797469076233,0.03328450893585519,0.02187860387120726,-0.00014889577555495022,0.013825239346874074,0.09849733394338145
10.610088348388672,1.063146490331031,-0.06062273264912285,2.118305643029243,0.3192505278437363,0.004851348081290837,0.02599577094292793,0.0330745088200584,0.021954676408163266,-0.00015378717246671824,0.0151390093009236,0.06568849770247631
10.630149841308594,1.0663410359393948,-0.060573258241985214,2.1185655795242297,0.31959009759637835,0.005067941188111481,0.025993752428312925,0.032836083678407776,0.02198652029938432,-0.00015828907642107814,0.01577701931036435,0.03190050047203741
10.650230884552002,1.0727393892478598,-0.06046750004405373,2.1190854226056266,0.3202444408207313,0.005507981232608621,0.02599054009039939,0.03259835487232189,0.022017308657075293,-0.0001629753391724435,0.017092201690104503,0.0657591189870077
10.670121669769287,1.079151578566001,-0.06035266588535548,2.1196051903781163,0.32091422241576517,0.005957579875959997,0.025987061323608875,0.03239028732584422,0.022153601332258185,-0.00016726589849326158,0.018415610990828668,0.06617046503620827
10.690009593963623,1.088794059257325,-0.06016352496932859,2.1203847288716893,0.32189795524137926,0.006636935105165404,0.025982074984704562,0.03222214686634195,0.02238876540373713,-0.00017144443243409055,0.020407096682850234,0.09957428460107831
10.710085391998291,1.0952384516013245,-0.060026292999684455,2.1209043357945605,0.32254071996848027,0.007087034869396827,0.025978602749966485,0.03205438985545854,0.022620668672076672,-0.00017581013272533944,0.02168844129532177,0.06406723062357678
10.730071067810059,1.1016961135735996,-0.05987947888125523,2.1214238549396214,0.323190311305735,0.0075529783364890355,0.025974457485840863,0.03182329772773386,0.022725105223030846,-0.0001797821401095935,0.02301954993829014,0.06655543214841853
10.75019359588623,1.108166269091424,-0.05972386742335898,2.1219433078586523,0.32382447272338194,0.008008509424396603,0.025970820547241456,0.03159297173463739,0.02282769673628108,-0.00018394311002635554,0.024308012005406,0.06442310335579293
10.770037174224854,1.111406278319264,-0.05964249292649949,2.1222029865119136,0.32414342463943957,0.008241369190443932,0.02596840889537197,0.031348930987227956,0.022858871449600752,-0.00018772714229603775,0.024942885811106486,0.03174369028502433
10.789971590042114,1.1211450168649806,-0.05938480188408397,2.1229819535730683,0.32509121160941784,0.008932569098960568,0.02596274281970668,0.031105451487608588,0.022903938441990197,-0.0001914032899532279,0.026910177337413632,0.09836457631535733
10.810072898864746,1.1276530459920346,-0.059201566780233826,2.1235011698941415,0.32571089193365615,0.009391086826921942,0.025958876395128214,0.03086270279935235,0.022947600815521694,-0.00019527098877548908,0.028151919102218148,0.062087088240225796
10.830032587051392,1.130911953396525,-0.05910614624769976,2.1237607315835882,0.3260250573371291,0.009631633973977075,0.025956357370537503,0.030675155029033306,0.02298696943234185,-0.00019876722703454915,0.028789340427134213,0.03187106624580327
10.850114345550537,1.1374385770857607,-0.05890891361547447,2.1242798187348058,0.326636687406396,0.010091756099198072,0.025952345453308125,0.030487901046051,0.02302502473188878,-0.00020245657630896973,0.03006486955491061,0.0637764563888199
10.870025634765625,1.1439779815607014,-0.058701733708871474,2.1247988202406085,0.32725908602263437,0.010571397267224319,0.025948188615448873,0.030327982804975104,0.02306459751937275,-0.00020576650488179302,0.03136320696637496,0.06491687057321727
10.890475273132324,1.1570929149338611,-0.05825962937661897,2.1258365748840684,0.32847755263135286,0.011514878299902182,0.02593977304775788,0.030180230577822945,0.023187982009905187,-0.00020895728900168569,0.033937889641752594,0.12873413376888188
10.910138607025146,1.1636684922029343,-0.058024686094456775,2.1263553283310435,0.32907968313417635,0.011979854144171385,0.025935560360827503,0.030032888064157763,0.023309250519097033,-0.0002123439435265179,0.03510112350333472,0.058161693079106236
10.930058479309082,1.1636684198698188,-0.0580244075389095,2.126355297886379,0.3290749850901856,0.011990088109971922,0.02593438617870193,0.029855011659617806,0.02336252143514489,-0.0002153791588888146,0.035072619576812514,-0.0014251963261102674
10.95147442817688,1.176855276219902,-0.05752575661834445,2.127392403168094,0.330266082978146,0.012933963636977653,0.025923439466935514,0.029644640163802558,0.023414000289767846,-0.0002182819874174825,0.03765761472985485,0.12924975765211677
10.970071077346802,1.1834665128346085,-0.05726239118205953,2.127910828097579,0.3308568807120428,0.013402747028242505,0.025919043143794732,0.029435305997436354,0.023464111414778804,-0.00022138330118511593,0.038791273235741386,0.056682925294326836
10.989976406097412,1.1867763872730515,-0.05712691722455713,2.128169937473704,0.33114453564452573,0.013646187348388307,0.0259148733419182,0.02921041379796407,0.023572532248507562,-0.00022411798732954196,0.03938541422851749,0.029707049638805216
11.01008939743042,1.1934051051309855,-0.05684927184429042,2.1286881899246235,0.33172650418068805,0.014118705338103384,0.025910361967631367,0.028986623317062928,0.023678930343304535,-0.00022705266677985618,0.040622673937117604,0.06186298543000568
11.030041456222534,1.2000455007723767,-0.05656183002364603,2.12920632183594,0.33230663090784784,0.01460087581374813,0.025905127338311445,0.028792759952334997,0.02375144450195989,-0.0002296167144380564,0.041838458505484066,0.06078922841832313
11.050028800964355,1.2066973790526219,-0.056265057468927536,2.12972437827834,0.3328805531936532,0.015076615726689672,0.025900507682939316,0.028599583057574037,0.023822265210235574,-0.00023238230621099005,0.043027303497884084,0.059442249620000887
11.070069313049316,1.2100276915681136,-0.05611295617987074,2.12998337052921,0.3331671068773934,0.015319770214077051,0.025898163507100357,0.028434019406195173,0.023923380413859947,-0.00023480168416310833,0.04359727721845896,0.028498686028743947
11.09003210067749,1.2200356242833517,-0.055642554824674395,2.130760227584562,0.33402213148822274,0.01603952421251026,0.02589164704971956,0.028282196060395417,0.024038932931608095,-0.00023713135884014433,0.04545535289545466,0.09290378384978482
11.110188961029053,1.2267217132457715,-0.05531694895998416,2.1312780129337794,0.3345862596765783,0.01652144012628602,0.025886879427417367,0.028130672943377486,0.024152294027252226,-0.00023966470949646868,0.04659207782707453,0.05683624658099351
11.130042791366577,1.2334189875933235,-0.054981720251360826,2.131795725727635,0.3351452975974724,0.01700457470625306,0.02588257618855793,0.027975054175665558,0.024301800692116782,-0.00024184292283341825,0.047768378161882286,0.058815016740387804
11.15035891532898,1.2434857986032053,-0.05446077714277218,2.132572106117122,0.3359792562681857,0.017730833919932774,0.025875660043437335,0.027826516819662285,0.02442860693520829,-0.0002439328596503986,0.04955975478210428,0.0895688310110998
11.1700599193573,1.2502109391508276,-0.05410126640860461,2.133089570381784,0.3365343047955923,0.018220654231385008,0.025870758769964537,0.027678407290375618,0.024553027480809123,-0.00024622869561199306,0.0506850443029605,0.05626447604281104
11.190008640289307,1.253577434738408,-0.05391798044880979,2.1333482610367325,0.3368031930400473,0.018462385636241394,0.025868101591478072,0.027545505652773916,0.024599258555570658,-0.00024818649168077933,0.051215748580159204,0.02653521385993507
11.210074663162231,1.260318998851052,-0.053543809877328145,2.133865573290379,0.3373527759409996,0.01895482061714759,0.025863116556759033,0.027412820682770275,0.024643990244625873,-0.0002503513880425372,0.05242950417612535,0.06068777979830742
11.2300283908844,1.2636937349360264,-0.05335323083960047,2.1341241979299173,0.3376214111354212,0.019196172892224583,0.025860812536141222,0.027334394914841367,0.02469407376522868,-0.0002521836520046413,0.052942847397043025,0.025667161045883624
11.25142765045166,1.2772201903169471,-0.05256580017036986,2.1351584415631595,0.3387060852655197,0.020180918360843098,0.025851012426825973,0.027182327654001328,0.024786424393744694,-0.00025391313712642776,0.05538287777288575,0.12200151879213639
11.270085334777832,1.2839997383739628,-0.05215721846745388,2.1356754109032967,0.3392482151448473,0.020677552711516164,0.025845915124357334,0.027030740302801934,0.02487665878599076,-0.00025585187578514116,0.05641976354750522,0.051844288730973354
11.290005445480347,1.2873932438765305,-0.051949220745130247,2.13593382537491,0.3395077756806325,0.020926212809722292,0.025842408993962302,0.026879212258761564,0.024933772817889766,-0.0002574544982507652,0.05694843791720938,0.026433718485208146
11.310055255889893,1.294188765152459,-0.051525706014211116,2.1364506219465156,0.3400438482680015,0.02142544483681367,0.02583724212306745,0.026728119002523417,0.024989139346011307,-0.00025926755346660147,0.0581412382162223,0.05964001495064597
11.33005952835083,1.2975903263115707,-0.05131029855643935,2.1367089725185564,0.3403035431279457,0.021672486504671674,0.025834463912499665,0.026558304157156324,0.024967965702725182,-0.0002607525203112054,0.05864337939121578,0.025107058749673783
11.350888967514038,1.311223585669515,-0.050423510564315974,2.1377421624884714,0.34136127832990204,0.022669237483222106,0.025824563305199878,0.02642555370541689,0.02492868610009252,-0.0002621401656017435,0.061044025869110285,0.1200323238947254
11.370046138763428,1.3180560874868623,-0.049965142735216544,2.1382586012233977,0.34188846024088637,0.02316741188739566,0.025819304853545073,0.026292604587823003,0.024888624386579457,-0.00026374030505791913,0.06203232322556573,0.04941486782277238
11.389981031417847,1.3214760962897665,-0.049732124626127645,2.138516757936611,0.34214474183050025,0.023419202002590185,0.025815917771629202,0.026167361559831768,0.02486297128103798,-0.00026501288853223706,0.06254684823827183,0.025726250635305092
11.410124778747559,1.3283242162418514,-0.049258769750445484,2.139033023193937,0.34266683541601717,0.0239161968300662,0.025810603007082274,0.02604197300808666,0.02483635071077505,-0.000266499051982271,0.06369731808881385,0.05752349252710065
11.430067777633667,1.3317520496391801,-0.04901811553033006,2.139291104266631,0.34292212619510337,0.024171975736071483,0.025807685633040464,0.025919075120096946,0.024852095094144936,-0.0002676636081369049,0.06419868888914149,0.025068540016381924
11.450658798217773,1.3454895014299548,-0.04803092025354154,2.1403232183866803,0.3439531756070124,0.025176732338645764,0.025797529554895726,0.0257958561727971,0.024850640968816777,-0.00026873471187772226,0.06655068467016578,0.11759978905121482
11.470052480697632,1.3523737159068019,-0.04752241563771539,2.1408391151486414,0.3444678618864694,0.025673720253465305,0.025792142352305404,0.02567279882148468,0.024847943931993622,-0.0002700213597367641,0.06748692111836618,0.04681182241002002
11.489991426467896,1.3558194447538645,-0.0472642087829986,2.141097002752126,0.3447167187799063,0.025928522089497072,0.02578880587177046,0.025542228214692413,0.02483982317738447,-0.00027098804778834343,0.0679900568619809,0.025156787180735662
11.510103940963745,1.3627188788767886,-0.04674067097777807,2.141612724596668,0.3452262587039964,0.026425227378404997,0.0257833746382631,0.02541178569858189,0.024830507044050484,-0.00027217128228119287,0.0691049000738575,0.05574216059383019
11.530048847198486,1.3661722582952054,-0.046474987999534076,2.1418705413489216,0.345474511314346,0.02667860537320357,0.0257806196347014,0.0252437728973179,0.02479549852832996,-0.0002730411003922142,0.06957780407927361,0.02364520027080541
11.550045251846313,1.3730867861073854,-0.04593645917069608,2.142386099064524,0.34597771200533517,0.027174157856051095,0.025775148301074496,0.025076403386417156,0.024759602257055004,-0.00027412839663109846,0.07067953804476179,0.05508669827440915
11.570031642913818,1.3800113391524265,-0.04538770203617111,2.142901568823331,0.3464779588341132,0.027677326526924482,0.025770228840720368,0.024930039191786837,0.024727195714193077,-0.00027488898471833345,0.07172881796420283,0.05246399597205187
11.59003210067749,1.3904169493335388,-0.044545997460301905,2.1436745659272716,0.3472258774953929,0.028426090738064125,0.025762405643383602,0.024752912517371984,0.024672667793078494,-0.0002755800138872013,0.07333702839762513,0.08041052167111484
11.61009955406189,1.3973664057035013,-0.04397254477869012,2.1441897588670935,0.3477191721443184,0.02891899356456379,0.02575688530454068,0.02457670551371316,0.024617510303132077,-0.0002764903007957751,0.07428330377210779,0.047313768724133176
11.630038261413574,1.400844844832873,-0.04368185344959414,2.144447328219879,0.34796380156500134,0.02917252350996936,0.02575444426296632,0.02438470423969832,0.024572247564292965,-0.0002770958280656514,0.07475119801444574,0.023394712116897587
11.650073528289795,1.4078089850566422,-0.04309349158757002,2.144962361634589,0.3484495842538147,0.029663509140925602,0.0257488944558848,0.024193736778082394,0.024526182196792073,-0.0002779214496523836,0.07580987238720205,0.052933718637815375
11.670051097869873,1.4147831052484716,-0.04249483457862029,2.1454772906946027,0.3489392101548017,0.030166232507291908,0.025743582344996522,0.023983134940125085,0.024552769588525866,-0.0002784237275189214,0.07682432302310405,0.05072253179509989
11.690003633499146,1.4252623266103872,-0.04157855548218727,2.146249492649785,0.3496641784278405,0.03090972019382203,0.02573580751435289,0.023770496133880586,0.02457949183753443,-0.0002788613872144089,0.07837276578507035,0.07742213809831533
11.71002984046936,1.4322603501537692,-0.04095544347839253,2.146764152987517,0.35013747054822325,0.031401563934757126,0.02573022406058732,0.023558887456820415,0.024604616705157532,-0.0002795208418171148,0.07928429580189489,0.045576500841226775
11.73000168800354,1.435763117427661,-0.04064008177571426,2.1470214597243955,0.35037728893464265,0.0316506809986143,0.02572789936331969,0.023343178535603092,0.024603887382317263,-0.00027988234864569355,0.07972338669490586,0.02195454465054869
11.750474214553833,1.4497974193185104,-0.039354377967486434,2.148050374391086,0.35132081423752637,0.03263386079795665,0.025717299420250195,0.022979295833873356,0.02452895289923279,-0.00028016150716172935,0.08184335135549281,0.10599823302934741
11.770066976547241,1.4568284073622475,-0.03869679994796388,2.1485646643173975,0.3517767877667455,0.03312369194671707,0.025711691535564764,0.02261858482683236,0.024454190611939083,-0.00028066408390702306,0.08265197698898863,0.04043128167479093
11.789969682693481,1.4603475755985624,-0.03836433444966864,2.148821757242553,0.35200749655942365,0.033367656859899564,0.02570857698433493,0.022224631978897017,0.02434690820691646,-0.00028086686688622676,0.08307851340646843,0.021326820873990293
11.81006407737732,1.4673921443659805,-0.037692119060669195,2.149335872584127,0.3524480785580448,0.03385352591939259,0.02570295574972108,0.021834144471345462,0.02424007198730312,-0.00028129384652264317,0.08408740692376293,0.050444675864724786
11.829996585845947,1.4744466159911078,-0.03700990096271378,2.149849875150333,0.3529118567003441,0.03434630531479065,0.025697292240251707,0.02154949122044582,0.024232666756731483,-0.0002814046053033184,0.08502175493116093,0.04671740036990002
11.850128889083862,1.481509144133763,-0.03631812888098637,2.150363764695565,0.35334001453810215,0.034830873894626725,0.025691661163167637,0.021266583036758317,0.024223977878492682,-0.00028174051364991947,0.08594742515186171,0.04628351103503903
11.870020389556885,1.485044465986309,-0.03596837799269705,2.1506206643988066,0.35357440015846175,0.0350771153160013,0.025688778828901394,0.020983830566148297,0.02393046615948279,-0.00028190979344781445,0.0863524259206998,0.02025003844190465
11.889987707138062,1.4956620424274463,-0.034904984749874766,2.151391208070336,0.3542269288561527,0.035804116950423334,0.025680544329975546,0.020705722388318276,0.02390527859991222,-0.0002829364597304822,0.0878579142060203,0.07527441426602444
11.910122394561768,1.5027507036846242,-0.034184123092445715,2.151904762290492,0.3546382749076383,0.03628196096191721,0.025674873550247994,0.02042913613648856,0.02387892954646694,-0.0002841770577118472,0.08867635692747733,0.04092213607285178
11.930062770843506,1.5062987341258927,-0.03381981201836385,2.15216150314039,0.3548569022981958,0.036527085347864405,0.025672161979775017,0.02006386493921503,0.023641456270367053,-0.0002860224430133105,0.08908202068155457,0.020283187703862282
11.950325965881348,1.5205101424880427,-0.032339267893306246,2.15318817575601,0.35568343565607186,0.03748742063650082,0.02566112610026247,0.01980144578351286,0.023739687178906593,-0.0002889809408236352,0.09106304812490018,0.09905137216728033
11.970015048980713,1.5276277540709273,-0.03158476511084258,2.1537013402750738,0.35607685291472807,0.03796317728932085,0.025655315310262636,0.01954053042656269,0.02383559119751584,-0.00029212966014934266,0.09178800847932678,0.036248017721329795
11.989991903305054,1.5311899216914469,-0.0312037411721704,2.1539578589773574,0.3562821520439708,0.03820758444708579,0.025651697634069815,0.01933110486478525,0.02393861300821417,-0.0002958303808369739,0.09219561387312813,0.020380269690067898
12.010047912597656,1.5383194170471082,-0.03043479501282615,2.1544708335082006,0.3566666891367748,0.03868736687725289,0.025645742511854936,0.0191227892072277,0.0240392301695666,-0.00029971186923376047,0.0931477570105117,0.04760715686917827
12.030009984970093,1.5418874933886435,-0.030046872255504023,2.154727263672581,0.3568684733581929,0.03892392446059603,0.025642431183208445,0.018902704889154343,0.024160076350958397,-0.0003041294023255356,0.09349933770819208,0.017579034884018796
12.05000114440918,1.5561778958007473,-0.028471331759019933,2.1557527347608842,0.3576341957310265,0.03986893999150114,0.025630665039805496,0.018591928169459246,0.023877502192671537,-0.0003096076526433448,0.09541524926415468,0.09579557779813008
12.070108413696289,1.5633342774684629,-0.027669196184645712,2.1562652857670077,0.3580029408439402,0.04034368302066197,0.025624416783910395,0.018282869127482233,0.023597174485779415,-0.00031524423357201314,0.09611612242985856,0.03504365828519429
12.090007543563843,1.566915281410827,-0.027264881805967377,2.1565215040056223,0.3581847780052178,0.04056981524644883,0.025620916034013765,0.01798349501234417,0.023357675411873505,-0.0003213722611616523,0.09647366597165163,0.01787717708965353
12.110013961791992,1.5740825537978302,-0.026448829842531097,2.1570338576358257,0.3585414685244942,0.04103458876607368,0.025614426060748673,0.017685843765091844,0.023119975977575636,-0.00032764991421266174,0.09737897795088646,0.045265598961741205
12.130093336105347,1.5776691351186205,-0.026036990088105623,2.1572899953776035,0.3587238311522368,0.04127417755278719,0.025611405199812805,0.017403887304928818,0.022903604679896727,-0.0003344061282322498,0.09773209948272576,0.01765607659196533
12.150091409683228,1.5920326837388887,-0.024366569365005187,2.1583142148179344,0.3594339042573004,0.04221637048564927,0.025598735866286894,0.017174327837652294,0.022665521348427888,-0.00034217352253181397,0.09960757477142579,0.09377376443500118
12.170093297958374,1.5992247814298877,-0.023517724630962022,2.158826120576306,0.35977510259417084,0.0426673154567671,0.025591813651712935,0.016945653321384993,0.022429282671557332,-0.0003500692407977457,0.10023160279425714,0.03120140114156733
12.18999171257019,1.6028235058493376,-0.023089313664988217,2.1590820141172977,0.35994716609006044,0.04290904115305826,0.02558800511259101,0.016891156531463503,0.022449070895114578,-0.00035839734995129634,0.10062473901308788,0.019656810941537373
12.210087299346924,1.6100258237146763,-0.022226641765391214,2.1595937019788476,0.3602844351475742,0.04335821097956167,0.02558075288076917,0.016835567768557744,0.022467722868861013,-0.00036684581255743966,0.10146925676873808,0.04222588778250991
12.230034828186035,1.6136295151793338,-0.021791369863361894,2.1598495019906916,0.36045062958093294,0.043600111502204324,0.025577364477780303,0.01665495869813739,0.02270000853036699,-0.00037571510397823953,0.1018250394358664,0.017789133356416187
12.250969409942627,1.6280604669802605,-0.020029239945277263,2.16087234210578,0.36110459714281373,0.04450707539485195,0.025563412316636544,0.016488409293601753,0.022908558311789104,-0.00038554718912513436,0.10358897090280017,0.08819657334668829
12.270030975341797,1.6352858455243813,-0.019134503004717793,2.1613835325821857,0.3614327036181583,0.04496730167992659,0.0255556022163632,0.01632231396341009,0.02311346423019886,-0.0003954794650871947,0.10422340057807222,0.03172148376360262
12.290059328079224,1.6389005277379503,-0.018684135046461284,2.1616390732950475,0.36158105159931325,0.0451860775721366,0.025551633907958907,0.01612995773189132,0.023275831672225838,-0.0004057905661904521,0.10455483133286325,0.016571537739551445
12.310112237930298,1.6461353619747816,-0.017775747661372136,2.162150024123036,0.36190173336591136,0.04565319168926326,0.025543414210785268,0.01593834235596824,0.023435057656068164,-0.00041619456518152305,0.1054321227450159,0.04386457060763238
12.330041885375977,1.653376141441075,-0.016859330678476215,2.1626608377276453,0.3622061985578522,0.04608663989415783,0.025535781484135083,0.01550074788405933,0.023257911223518776,-0.00042724291838718063,0.1061412348495141,0.03545560522490998
12.350654363632202,1.6642492538015377,-0.01546700407751101,2.1634267506938514,0.3626685582445185,0.046761432415538824,0.025523784430327868,0.015281143148456175,0.022918164304870044,-0.00043892277677905385,0.10735246107775165,0.06056131141187748
12.37011170387268,1.671505666586379,-0.014527214295395654,2.163937137815545,0.3629719903335539,0.04721642335042003,0.025514888559833034,0.015062171347400245,0.0225814304498566,-0.00045067652543423465,0.10804434202341007,0.034594047282920926
12.389993906021118,1.6751361083586493,-0.014054135128643902,2.1641922876944246,0.36311753830184135,0.04743623606798909,0.02551093464310204,0.01458112904582994,0.02247643868696548,-0.0004627610648934242,0.10835638998545782,0.015602398102387838
12.410074710845947,1.6824013435076917,-0.0131009221000531,2.164702413026072,0.36340438823305293,0.047884718080908974,0.025501558015667593,0.014104617991680212,0.02237182561058146,-0.00047491282154478123,0.10918294058521338,0.041327529987778
12.430060625076294,1.6860363175139503,-0.012620556242367558,2.1649574377401124,0.3635483519116042,0.04811841222085297,0.025497635615719966,0.013659803438693194,0.02218931619251635,-0.0004873840967472074,0.1094997182127031,0.015838881374485858
12.451030969619751,1.7005903525044632,-0.01067736550803939,2.165977006522569,0.3641200601346519,0.049021510158006217,0.02547932258142665,0.013233730243714967,0.022027258587566784,-0.000500719067912318,0.11120307757809833,0.08516796826976147
12.470178127288818,1.7078753722520859,-0.009692540606502199,2.166486491938919,0.3643805079611439,0.049460443168748175,0.025469174439480612,0.01281173007271503,0.02186621044023996,-0.0005141032800003854,0.1117601230843257,0.02785227531136858
12.490010738372803,1.7115204096938588,-0.009196599194179016,2.166741158898932,0.3645221785821474,0.04968466607851935,0.025463883325969373,0.012437161239693042,0.021730237311034063,-0.0005277643576776539,0.1120938723806435,0.016687464815889896
12.510118007659912,1.7188133159142935,-0.008198568852256196,2.1672503300996744,0.3647672074123986,0.050117917386467266,0.025453191067095687,0.012066346341121269,0.02159501907805079,-0.0005414686870358402,0.11287492316351022,0.03905253914333606
12.530109643936157,1.7224624321336155,-0.007696019964538121,2.167504847877388,0.3649060594771563,0.05033887770728254,0.025448060757517706,0.011417549201184141,0.021211434322875814,-0.0005554410882682818,0.11315925351695899,0.014216517672438478
12.550577640533447,1.737069516943014,-0.005664641840126841,2.1685223739264354,0.36539920315263474,0.05120628810994678,0.025426892675126083,0.010743211499274407,0.020856087466270594,-0.0005702276689336996,0.11477553644450822,0.08081414637746143
12.570090770721436,1.7443796050732465,-0.00463636848343147,2.169030796747308,0.3656073874467677,0.05161986752204489,0.025415340035545034,0.010076483869972752,0.020502076169081507,-0.0005850406428025166,0.11528157876865519,0.02530211620734857
12.590001583099365,1.7480371411216715,-0.004118464370192181,2.169284922376604,0.36573035850895286,0.051841874580105494,0.025409365411031285,0.009453032758512515,0.020180637149639743,-0.0006000852805110855,0.11561409648925158,0.016625886029819625
12.61000680923462,1.7553535976921377,-0.003077612131925915,2.1697929886637386,0.3659132441643402,0.05224228101631122,0.025397213083652597,0.008836720310861695,0.019860168076221086,-0.0006151509133874424,0.11632398879061334,0.03549461506808793
12.63002610206604,1.7590147667930494,-0.002553118657994188,2.1700469474800808,0.36604161396741647,0.052468905791355554,0.025391447311782868,0.008208414400509097,0.01954896591977988,-0.0006304411101631819,0.11662486358779622,0.01504373985914409
12.650596618652344,1.7663371992253927,-0.001499851450020849,2.1705546493179586,0.366199558713172,0.05285678071672794,0.02537868545630929,0.007587247817759071,0.019238679135944233,-0.0006457470138960813,0.11731579468658682,0.03454655493952963
12.670077323913574,1.7736658432783392,-0.0004369269124377618,2.171062145698811,0.366424434837191,0.053286953034249615,0.025366949859241202,0.006957616869649636,0.018897342473079105,-0.0006615291721243394,0.11800371649319441,0.034396090330379714
12.690045595169067,1.7846636701638114,0.0011713606341232105,2.171822890460834,0.3666835894382087,0.053884830406031384,0.025347943035094966,0.006342091986541817,0.01861678655397866,-0.0006778024353984755,0.11901472951111947,0.05055065089625277
12.710134983062744,1.7919985696881624,0.0022527619248302383,2.172329712676155,0.3668043347137348,0.05425436541221289,0.02533422425226276,0.0057336066008003145,0.0183368108296964,-0.0006940758350838598,0.11953532791228882,0.026029920058467937
12.730055332183838,1.7956684660627207,0.0027971745293972183,2.172583046932733,0.3669004061709116,0.054462448124054076,0.02532786137551641,0.005110679556926927,0.018096744830901065,-0.0007105336496474607,0.1198308289459371,0.014775051682414109
12.749985933303833,1.8030074551527044,0.0038900268441988436,2.1730894609565534,0.3669964503328969,0.05482198365420055,0.02531348616249262,0.0044949307438000375,0.017856834299426933,-0.000726986850126446,0.12046711113080288,0.03181410924328887
12.770068645477295,1.8103511336101674,0.0049915588702706005,2.173595637554339,0.3671563304651159,0.05521498389111539,0.025300149240383943,0.004367234771204832,0.017663044496055495,-0.0007438693942759601,0.1210880548741784,0.031047187168775636
12.790003776550293,1.8213692526457925,0.006656752829877522,2.1743543473202323,0.3673261744691552,0.05576533082166157,0.025278830413753627,0.004219257607141966,0.01745068211954906,-0.0007612045403025807,0.12201602521107002,0.046398516844581295
12.810073852539062,1.8287166101545405,0.007775535511942193,2.1748597705328807,0.36740908534769046,0.056112235287315265,0.02526343313130289,0.0040719402253945386,0.017240052769721483,-0.0007785204745853236,0.12249955093055487,0.024176285974242262
12.83060884475708,1.8323914577903613,0.008338024973967868,2.1751123979065836,0.3674585186092584,0.0562955051967093,0.025256379919672143,0.0034139947471066878,0.01687316100589476,-0.0007959833204221486,0.12275586362736979,0.012815634840745993
12.850144386291504,1.8397412674859341,0.009467285330651857,2.1756173651452935,0.3675202836140629,0.056629312831049765,0.025240285819978846,0.0027637940612391144,0.016507868763532458,-0.0008134227136426604,0.12334403911585623,0.029408774424322104
12.870092153549194,1.8470927408053317,0.010604113707512262,2.1761220722426864,0.3675841847987586,0.05698082369449436,0.025225480049643048,0.0021207255712274047,0.016180815587129634,-0.000831248638602308,0.12390232383899002,0.027914236156689753
12.890002012252808,1.8581219351671072,0.012321554344921225,2.176878501964087,0.36766392353305444,0.05748418831821368,0.02520150795277745,0.0015465619865246661,0.015817523242908745,-0.0008494887264299332,0.12475387000759008,0.04257730843000296
12.910104990005493,1.8654754850164632,0.013474377482840848,2.1773823610112455,0.3676891704364094,0.05779692025721079,0.025184336086437668,0.0009792717130208673,0.015455958216254645,-0.0008676917005100916,0.12518470365500844,0.021541682370918025
12.930080652236938,1.8691531763532405,0.0140537795107974,2.1776341913218404,0.36771515307213726,0.05796808516138807,0.02517634148973868,0.0003662713693977281,0.015215658553081154,-0.0008860054112145692,0.12542695576059204,0.012112605279179789
12.949986219406128,1.8838638060153268,0.01638584734758377,2.1786405946699134,0.36776611668357123,0.058602029371851355,0.02514215329019335,-0.00024050397237293639,0.014930574108542526,-0.0009049498755131258,0.12658709104314037,0.05800676412741623
12.970094442367554,1.8912190401543667,0.01756085507798039,2.179143255485281,0.3677552984801821,0.05889779563782432,0.02512386526527096,-0.0008401265073788635,0.014646165124227766,-0.000923844252262799,0.1269248389613704,0.016887395911502345
12.990057229995728,1.894897086697772,0.018150897512800857,2.1793944609590157,0.3677565133411772,0.059051181934922856,0.025114808542431633,-0.001424110945607737,0.014407872797982153,-0.0009428197896249136,0.1271526669713352,0.011391400498239612
13.010071754455566,1.9022518935656931,0.019334786849344084,2.1798965673035413,0.36772225052891583,0.05933695804215885,0.02509576283647008,-0.0020009880056351065,0.014169769667637349,-0.0009617418843561902,0.1276594323468676,0.025338268776620154
13.030063390731812,1.909607151003873,0.02052487861613546,2.1803983330061065,0.36770733667098304,0.05963044890549989,0.025077444412333977,-0.0025928565769494168,0.013895106013327115,-0.0009809741583400556,0.1281215429125857,0.023105528285904953
13.050034761428833,1.9169607400776922,0.021720248336131964,2.180899684420349,0.36764962244361477,0.05990560965524389,0.025057633103063352,-0.003177337250186831,0.013621074353273352,-0.0010001468208327947,0.12856399518584238,0.022122613662833857
13.070010662078857,1.9206378396576769,0.022320209070911617,2.181150239327269,0.36763819973586054,0.06004639770121337,0.025048273123351613,-0.003267235621393389,0.013444638608014257,-0.0010193847226638224,0.12874600989878804,0.009100735647282754
13.090100049972534,1.9279899442300545,0.02352381426275157,2.1816509996333995,0.36757195904173706,0.06031353819318702,0.025027693572424497,-0.0033567736720054326,0.013269651648538643,-0.001038559905661625,0.12923196021634276,0.024297515877735876
13.110041618347168,1.935341740855701,0.024733199697891704,2.1821514108672306,0.3675219484062647,0.060588830440734896,0.02500839165496831,-0.0040067815616613425,0.013148495865274144,-0.0010580241851429568,0.1296636044970425,0.0215822140349875
13.13005805015564,1.9463657073002572,0.0265568353982937,2.182901227999787,0.3673992519023419,0.0609801351381644,0.024977663438027615,-0.004688155549911555,0.012639699161213816,-0.001077817371776657,0.13034335143910303,0.03398734710302609
13.150623083114624,1.95738563991588,0.028391964221899157,2.1836501019586647,0.36725576976953267,0.06135947213024622,0.024945957283060812,-0.005299716267493176,0.01247453765020274,-0.001097925509577348,0.13095138919667315,0.030401887878506173
13.17005205154419,1.9647296549662314,0.029621637541633144,2.184148800182668,0.3671437213118564,0.06160730799790736,0.024923798355992326,-0.005903902851989445,0.012308984149702882,-0.0011179539015348289,0.13131630406204087,0.018245743268385795
13.190021991729736,1.9684009111679126,0.030238313961846685,2.184397991656804,0.36708330005105955,0.06172837141988518,0.024912688518490485,-0.006460559373763336,0.01215652083464281,-0.0011380028280131619,0.1314849503935891,0.008432316577411392
13.210103034973145,1.9757412482943046,0.031475302505345935,2.184896016494124,0.3669485802325913,0.06196997306487805,0.024889728657940924,-0.007010266495686778,0.012003561364781899,-0.0011579695171679448,0.13193356841146286,0.022430900893688488
13.230014324188232,1.9794110480215712,0.03209555091334941,2.1851448795002115,0.36689251427294495,0.062086822130398206,0.02487865269995795,-0.007555615605989022,0.011852486057883518,-0.001177954712374906,0.13207423300397725,0.007033229625719173
13.250784873962402,1.9940820729820674,0.034588272833535307,2.1861391386781803,0.3666174074184742,0.06254985650967138,0.024832684673790472,-0.00814857707355631,0.011340251965370599,-0.0011984423568644083,0.132973249310524,0.044950815327338134
13.270074844360352,2.0014127522636844,0.03584150408133492,2.186635551321971,0.36644856948641685,0.0627715752272103,0.024808511721812723,-0.008733954628324426,0.01083233881542191,-0.001218837409445232,0.13323685770970561,0.013180419959080147
13.2900390625,2.0050771346256613,0.03646961198970618,2.186883589413108,0.36636857844013687,0.06287495756957474,0.024796533309325578,-0.008904807169045782,0.010701868990872387,-0.0012392278918202668,0.1333946941804367,0.007891823536554377
13.310015439987183,2.0124027139501823,0.03772924286580206,2.187379270879086,0.36618879165473367,0.06308769839866088,0.02477154563591789,-0.009073514459531258,0.010572376528043962,-0.001259523665835155,0.13379711906950664,0.020121244453497056
13.330054759979248,2.0160645533538184,0.038361034316617956,2.187626952463843,0.3661091933444138,0.06320492466636848,0.02475959709117746,-0.008946918874490953,0.010690861160928192,-0.0012798135800437468,0.13395433989386651,0.00786104121799358
