t,x,y,z,vx,vy,vz,ax,ay,az,yaw,yaw_dot
0.13778996467590332,8.597459358029178,-0.07207363858471087,2.5605933351336345,3.262841731556641,1.048458292207753,-0.07167047432348993,-0.24595001679811207,2.100348517783182,0.22956902525978443,0.2214184880221195,0.26690928547494774
0.1576220989227295,8.69528870146848,-0.039250285535659214,2.558600554670182,3.2564358348286406,1.1232617065065815,-0.06341455433334578,-0.3088718768108082,2.088526477208109,0.20740327001698391,0.234467093265756,0.6524302621818245
0.17769885063171387,8.760351719380852,-0.01636837473088779,2.5573723246385445,3.2496741904116146,1.1648739990834565,-0.05947847187479907,-0.3664035449667165,2.071916323442152,0.18639593440602117,0.2385051761146615,0.201904142445275
0.19773149490356445,8.825278033700116,0.007739036630323113,2.5563077569554395,3.242043612873416,1.2153201243409464,-0.05366648328721946,-0.40834674751505634,2.0411656088469012,0.16674879436723597,0.24692357450384872,0.4209199194593616
0.21816658973693848,8.890034659488094,0.03245144673345486,2.5552665206876664,3.2334937194277473,1.2558067377809776,-0.05051908169724748,-0.44592221055515696,2.0069230010986385,0.14816693733483968,0.2519479348707403,0.2512180183445789
0.2377629280090332,8.90294096102805,0.03756163321914176,2.5551173765491018,3.2307531138297296,1.2652581465124784,-0.04849330151498098,-0.4490448057980104,1.9381940594606584,0.13139237640121887,0.25215553208922836,0.01037986092440324
0.25765466690063477,8.999600358847232,0.07646091655938067,2.5538222871848175,3.215193277758824,1.3250479626019582,-0.041800692966424226,-0.4655354840748861,1.9092927340099415,0.11498134367097126,0.263530681200999,0.5687574555885311
0.2776815891265869,9.063810167876474,0.10334163350528681,2.5530082229823896,3.2057426248131287,1.3629158386782816,-0.039657276914932454,-0.4790365996045456,1.8769265757502172,0.09951609220056758,0.26671836125476966,0.15938400268853403
0.2976229190826416,9.159424040537015,0.14504575931344393,2.552078271407053,3.183066961999912,1.4179187540657636,-0.03203836156316796,-0.510822545493024,1.841344282546182,0.08434497823200285,0.276400599622892,0.484111918406116
0.31773996353149414,9.22298129681874,0.17376988300881444,2.551453407771529,3.1725660488404044,1.4543651805842484,-0.030495515048429865,-0.538609128907255,1.8028154506622847,0.07009070557489798,0.27965878007784584,0.1629090227476926
0.3376729488372803,9.254469752025981,0.18832230141111025,2.5512431005166167,3.1610491946615307,1.4699456315232609,-0.027321240489394823,-0.5522531116835777,1.7986323886770423,0.0569290357685434,0.28185643068683763,0.10988253044958984
0.3575770854949951,9.317474705302159,0.21802903184144026,2.5507630359394957,3.1465806629029727,1.5041055016965594,-0.02444909225533224,-0.5396459385875718,1.7933449490673194,0.04450490050079013,0.2875713789342944,0.28574741237283874
0.377643346786499,9.380299294416703,0.24846919673603488,2.550282167451535,3.135924566607881,1.5398759908982314,-0.02367646910538083,-0.5257508907697324,1.782848414913481,0.032890808472133576,0.2918760055712313,0.2152313318468435
0.3976774215698242,9.442598012221797,0.27939643894846083,2.5499599866633758,3.1178946471458886,1.5693256645742366,-0.01950227266386871,-0.46294620020203686,1.744418815249152,0.021868901855771044,0.296173801839851,0.21488981343098512
0.4178812503814697,9.504867405353243,0.31112911425607653,2.5495736182999607,3.1092475342267942,1.6038031658003191,-0.019168771704682386,-0.4020849164182799,1.7028104938320283,0.011606185731132713,0.30044515106375114,0.2135674611950078
0.43774962425231934,9.535656613135895,0.32706974206514977,2.54947135531593,3.097511290548627,1.6151989307871957,-0.0166250360633415,-0.3383809700339237,1.6529880178246634,0.002140746155855024,0.30142232946167313,0.048858919896099806
0.45761895179748535,9.628018374548795,0.3761419582954679,2.5490545276965624,3.075996554424259,1.6608101926873586,-0.014362757089946028,-0.2774053105138747,1.604133712815762,-0.006824856261114576,0.30944613434584456,0.4011902442085713
0.47770261764526367,9.689486786565833,0.4096756158384682,2.548765343882518,3.071041052207458,1.6923850142683625,-0.014583250460640684,-0.21848300593940947,1.5529709608763802,-0.015112983105366063,0.3112393464862775,0.08966060702164658
0.49767136573791504,9.750190661945457,0.4436890962739734,2.5485599002699666,3.0504110595971703,1.7198819491976105,-0.01277851050318719,-0.1405308034478096,1.5378463461131808,-0.022607722888529278,0.3161062282979987,0.24334409058606177
0.5176706314086914,9.811175806436086,0.47839307210330123,2.548299339548863,3.04835211010524,1.7504503406745413,-0.013300505802602135,-0.06591328305124257,1.5182607103835135,-0.029491242652755968,0.31853745041339554,0.1215611057698407
0.5376598834991455,9.84120359461841,0.4958947639860823,2.548209096797899,3.03541473319081,1.7630839790474262,-0.012402635652702988,0.004303829820733707,1.4918604167483505,-0.03554277095340447,0.32039122757300564,0.09268885798050519
0.5579771995544434,9.901917277439795,0.5314528606037705,2.547953559312347,3.0361773897126048,1.792624738304603,-0.013169476803074794,0.07145727139797224,1.4615791928240631,-0.04105217874997159,0.32350600524169515,0.15573888343447528
0.5778408050537109,9.96190216514086,0.5674553937243348,2.5477493804526476,3.019208977633874,1.8182312797479308,-0.012354447922495156,0.11476666395081937,1.4597141831989278,-0.0458361269926537,0.32703141918500567,0.1762706971655259
0.5977303981781006,10.02204774258718,0.6040468452230984,2.547516789971416,3.0133716014550433,1.8452410679880946,-0.012518525386732272,0.18436637655174049,1.4607356326627123,-0.05003955692486566,0.329559852703337,0.12642167591656595
0.6176564693450928,10.082356519841964,0.6412435891063394,2.547256153898477,3.0177269586500297,1.8744172914398867,-0.013557594056141901,0.2506181187135963,1.4559298288720794,-0.053793407024851386,0.33181143878022645,0.11257930384447334
0.6378052234649658,10.142103511619604,0.6787998773486104,2.5470344030229355,3.0069031035319096,1.897589670768089,-0.013161951763248544,0.31265663343547334,1.4231688643617373,-0.05691594823644876,0.33460173489699674,0.13951480583851428
0.6577775478363037,10.202308092572371,0.7170339242122683,2.5467595923422754,3.013751929720963,1.9256927893819815,-0.014328215669238614,0.3717392008956948,1.3865031962873693,-0.059645943244222885,0.33623378969203577,0.08160273975195143
0.6777758598327637,10.262048789916253,0.7556142871057097,2.5465184210422076,3.0064904787479,1.947954081170117,-0.014118575935427024,0.418037450193059,1.3392193303777815,-0.06181391057081596,0.3387171683298651,0.12416893189146627
0.6976683139801025,10.322063762368167,0.7948057098433997,2.5462426307367165,3.00909718668893,1.9747291872360038,-0.014741537377946227,0.5227437541863666,1.4813540082603553,-0.06354082883471555,0.34056136574915996,0.09220987096474342
0.7177548408508301,10.382356915097528,0.8346050631433933,2.5459349925028913,3.0205458373562513,2.0056150400265476,-0.016026992922714402,0.6210717915416464,1.6040318671181786,-0.06495306088496762,0.3423518304206521,0.08952323357460656
0.7377426624298096,10.442352691897144,0.874758423296327,2.5456462330877554,3.020172677399392,2.0303222371513607,-0.016202433937924917,0.7187475032213861,1.672305812931581,-0.06585416651425055,0.34431146613605756,0.09798178577027361
0.75766921043396,10.532898637656325,0.936009572877774,2.5451740975811252,3.0310976078976997,2.0679101049852444,-0.016898979374956654,0.7501942803195076,1.5879852314485277,-0.06637446196600097,0.34650660473162764,0.10975692977850393
0.7777302265167236,10.593672696984783,0.9776795453113092,2.544822820555064,3.046411271116586,2.098792454803352,-0.018229651785104665,0.781078109399372,1.4995828402781834,-0.06665315709913215,0.34753853928198675,0.05159672751795519
0.7977340221405029,10.623872699960803,0.9983822783092071,2.544692880201063,3.0463514498858153,2.102999636227386,-0.017315459551198523,0.8487554548713657,1.4016621137898937,-0.06686971068059844,0.34732003146982526,-0.010925390608074181
0.8177762031555176,10.684973817163598,1.0407159015196497,2.544333193806787,3.0639742458075,2.1300247609861627,-0.018653160044908718,0.9129492138492207,1.3002875260785516,-0.06686388276724481,0.3485824974610754,0.0631232995625064
0.8377745151519775,10.746067712558823,1.0834931246302288,2.544003056772641,3.073858717510747,2.1536736171840842,-0.018694319162758856,0.9912161580252041,1.1464065389619007,-0.06654635677906644,0.34947274337708967,0.04451229580071381
0.8577404022216797,10.838521719950245,1.1488371766427359,2.5434191424071835,3.098093927231313,2.1931216887999443,-0.02052845128627032,1.0377922613962036,0.959927345747558,-0.06566222388945439,0.35080206298616856,0.0664659804539447
0.8777346611022949,10.900694157975668,1.1928793751034747,2.542995507351172,3.119298205583725,2.2104906178738997,-0.021831611624636652,1.0822918087609257,0.7776648221868999,-0.06462950945098939,0.34970616949217703,-0.05479467469957644
0.89768385887146,10.96305151431034,1.2378216299158808,2.5425280822357132,3.135016275691797,2.239908962762954,-0.023612049931939515,1.0902741644622869,0.6308071684779947,-0.06295476973245968,0.3516595283556443,0.09766794317336291
0.9178164005279541,11.025970436569565,1.2827362937216624,2.5420433665886435,3.156903200026381,2.2510754664978188,-0.024853623848016013,1.0984488000792163,0.4862217393085132,-0.06118756188524823,0.34941922729096175,-0.11201505323412686
0.9377038478851318,11.08284937914288,1.3240352919077685,2.5415518496356655,3.174110963404267,2.276224359944427,-0.026831068073120523,1.1300902182470853,0.29332161911910637,-0.058821069685444656,0.35124009652761945,0.09104346183288481
0.9576320648193359,11.152944220565175,1.3745254971877012,2.540928830285673,3.198549122353555,2.292381122798186,-0.02870259511062294,1.109059115475291,0.11683630454812453,-0.05607529676352225,0.34939529860215757,-0.09223989627309415
0.977790117263794,11.21713569652452,1.4203849873596488,2.5403437468987473,3.220533934409983,2.292997316843235,-0.029796557150511008,1.0896966558908587,-0.05433825812639504,-0.05331940400569119,0.3474923160769774,-0.09514912625900873
0.9976873397827148,11.249456938688887,1.4438789171709816,2.540012705442822,3.2347481396266087,2.308872364070969,-0.031177531043010475,1.2592746332322684,-0.010909839095853167,-0.05028784897020845,0.3486083437451666,0.055801383409459504
1.017686367034912,11.314414396670145,1.490056405133541,2.5393792983839543,3.2615187412439646,2.308976537234728,-0.03215313510899371,1.4156049257559413,0.019128236881439144,-0.047275952154764184,0.34497425152573635,-0.18170461097151147
1.037781000137329,11.379916997473206,1.53701680624007,2.538677594573475,3.289705360252911,2.327522031281792,-0.03424392038581817,1.5459806634546338,0.020331674090050586,-0.04376234655856894,0.34553774625678013,0.02817473655218894
1.0576636791229248,11.479046225828405,1.6070097668064067,2.5376294709470866,3.3278041787874924,2.3302279499108276,-0.03548351149197183,1.4600813599648037,-0.22020831529284038,-0.0400342905674134,0.34117217057470084,-0.21827878410396462
1.0778138637542725,11.545888875801593,1.6535548116312275,2.5369120380964807,3.356192872930264,2.3235121948651214,-0.036247633224181744,1.3796953648879537,-0.4495133593028854,-0.03639218222887337,0.3390118298338365,-0.10801703704321763
1.0978114604949951,11.579334870534431,1.676895140701232,2.5365751859474788,3.3646387666280826,2.322091220981517,-0.035789202453948135,1.3231949464721577,-0.5409024603036262,-0.033066802499110655,0.33868218194861033,-0.01648239426130793
1.117729663848877,11.646888666647039,1.7232228145364006,2.5358530064859153,3.3905623765151782,2.3103796871212627,-0.03641790862125504,1.2696533444743048,-0.6298455417146526,-0.029816275253334638,0.33443436202458576,-0.21239099620122825
1.1377124786376953,11.749496069154944,1.7931249754228407,2.5347625448053175,3.4369372756243775,2.310242006901063,-0.037108780901172256,1.2492220757701173,-0.7033661103565997,-0.026373551064836034,0.3312311333980409,-0.1601614313272437
1.1576240062713623,11.818658994664462,1.839373509476227,2.5340065868449586,3.4674398309235377,2.3016206684099627,-0.03789699360274001,1.209055939779301,-0.7839162857413802,-0.022893750325485244,0.328349795070241,-0.14406691638999547
1.177727222442627,11.888247020390093,1.8852438738840116,2.5332442948313036,3.4912352096137873,2.2851542166242638,-0.03832096645532425,1.1707955275288406,-0.8623833349998093,-0.019521339325239893,0.3248658136645268,-0.1741990702857077
1.198537826538086,11.994171098858622,1.953859422959279,2.5320592928356085,3.540381135169315,2.2677092842348254,-0.03940125824801882,1.1249778280094522,-0.934004667389966,-0.015872738774677615,0.3192052095354727,-0.2830302064527057
1.2177283763885498,12.065200765690228,1.9990221376289026,2.531268329642409,3.5624396705685757,2.248330411933038,-0.03968334623080513,1.0812137556408137,-1.0035363118172036,-0.012358254991467414,0.31670268428962567,-0.12512626229235213
1.2377750873565674,12.065330615468753,1.9990309878316859,2.5312690001510227,3.565813014510667,2.2475387874247486,-0.03961239395538112,0.9922256793959159,-1.0865183441947093,-0.009180941237673317,0.31749164744724956,0.03944815788119449
1.2577011585235596,12.173054268229802,2.066038782868688,2.53007670613933,3.6035359873874753,2.2160742881969187,-0.03985084833259324,0.898799905336192,-1.1844169730357073,-0.005966051572962179,0.3093369616899069,-0.40773428786713417
1.2777869701385498,12.245298800564461,2.1101171514496615,2.529278703869785,3.6206245001785673,2.191455702334365,-0.03993908932774032,0.8109739979122269,-1.2764793283237466,-0.0028792309447600957,0.3075974661352068,-0.08697477773500495
1.2976899147033691,12.281887071532763,2.1320157942029456,2.5288774130224967,3.6381145823767262,2.1794857634435063,-0.04000300289121358,0.756847514715497,-1.3428687475716656,3.9058530589727324e-05,0.30522271440952853,-0.1187375862839124
1.317796230316162,12.354797288124821,2.175332727320668,2.5280775491998293,3.652737545998339,2.152000709167487,-0.03997405946412812,0.7059870363822344,-1.404922118599042,0.002835064077261654,0.3009395934717034,-0.21415604689125622
1.337724208831787,12.46563005676038,2.239500198559821,2.526861033557538,3.6938503657961856,2.114615718991614,-0.04027901848600192,0.6396577601117266,-1.4359909543802145,0.0057511914317028645,0.29397903455207164,-0.34802794598158826
1.3576993942260742,12.539840005641606,2.2815148362154103,2.5260535153761103,3.712951314759884,2.086187184767439,-0.04024350225184676,0.5764889006289183,-1.4311313384857984,0.008567226795572942,0.2911961831869192,-0.13914256825762195
1.377741813659668,12.614210274733944,2.3229523689225156,2.5252505396711724,3.7238754205682105,2.057561796627867,-0.0400451363876314,0.5164356730577682,-1.4324148344709422,0.01124682387539525,0.28717447494798787,-0.2010854119465666
1.397644281387329,12.689274182349383,2.363663087309737,2.524442986734707,3.7454656775056985,2.024517965031919,-0.04003208805769626,0.444952749113505,-1.4323613036206364,0.013860829869074175,0.2824021708289277,-0.23861520595300778
1.4182548522949219,12.764267922796344,2.4038666813383958,2.5236452845750423,3.7536835074105617,1.995821934354855,-0.039729868806206464,0.37749331315267,-1.4382091043074898,0.01633860335335711,0.2794110853833165,-0.14955427228056095
1.4376697540283203,12.802090381993365,2.4235269109763924,2.5232386783198444,3.7642987741074303,1.9750300411650397,-0.039841812868600626,0.29606157447503123,-1.4150751012613425,0.018694676250508482,0.27682265163822706,-0.12942168725447178
1.4576246738433838,12.915452377354383,2.4818638259252253,2.5220376825955304,3.7811455867330355,1.9246086894265217,-0.039667072899218135,0.22734128326114533,-1.4108663666305483,0.021071322371500986,0.2691595985194466,-0.38315265593902303
1.4777534008026123,12.991116436673327,2.520074093896026,2.521248706884862,3.785048598148982,1.8964312654197377,-0.03922303873860158,0.1638150891983429,-1.406918901272704,0.0233091975422923,0.26745469649645504,-0.08524510114957806
1.497629165649414,13.06725510919751,2.5572801272483474,2.5204459259958716,3.79784228349372,1.8574610392593962,-0.03931267347427662,0.1010404494522808,-1.3869290734917417,0.02553258668599342,0.2615068250599535,-0.29739357182507753
1.5177488327026367,13.143228227837138,2.5941532298217176,2.519664920238982,3.7992769330506837,1.8299115282384915,-0.038780958274717364,0.04324421959842603,-1.3682355132533324,0.027615817458393487,0.2593183038922442,-0.10942605838546449
1.537689208984375,13.219570536780008,2.6300337510853504,2.5188739771281345,3.808534884941035,1.791362276387527,-0.0387276128520892,0.028434314935416843,-1.3714676827631904,0.029655116409931327,0.25380177419807204,-0.2758264847086078
1.5581576824188232,13.3339822430757,2.682866139481619,2.517713413026529,3.813065889266818,1.7417875557993112,-0.03815905624213822,0.008289844799266076,-1.3910072674957263,0.03163964925590558,0.24795280394363628,-0.29244851272178796
1.5776450634002686,13.410244009227483,2.717422466982601,2.516956685039424,3.8130524353436437,1.7137854087527575,-0.03750759886879332,-0.009198518774302908,-1.4089436067738321,0.033482781136037934,0.2456286236445533,-0.11620901495414948
1.5976953506469727,13.448412936765873,2.7342397013209685,2.516577048029306,3.8138203724715987,1.692657178649878,-0.03732055815591938,-0.017477758255299125,-1.4077917466463854,0.035159818933803114,0.2432613696765764,-0.11836269839884395
1.6177184581756592,13.524685396695938,2.767811388688795,2.5158377740825166,3.813404660855918,1.6645170796303654,-0.03660168169522377,-0.023766657359481302,-1.4061355950111534,0.03670631645478576,0.23970201285383474,-0.1779678411370833
1.637739658355713,13.562795408515472,2.78419506595758,2.5154731616060206,3.8123627859119336,1.6453514371190876,-0.03622325916301018,-0.025704227559516003,-1.3692689988907911,0.03806474449576297,0.2380634950875833,-0.08192588831257286
1.6577816009521484,13.639037447439446,2.8168306017906772,2.5147563940192876,3.811838181855882,1.618318594882971,-0.03544936443312069,-0.026582129002913724,-1.3343337116357212,0.03930531323002575,0.2343414444467311,-0.18610253204260907
1.6777653694152832,13.715150972857156,2.8486274088943437,2.51405862391621,3.8083570724393145,1.5840698590706397,-0.034570216899277736,-0.006028486891167069,-1.3159414633108497,0.040348828851673964,0.2304073304718286,-0.19670569874512545
1.6976866722106934,13.829268142331896,2.8953322153256558,2.51303967001688,3.8045513670282785,1.538352435505529,-0.03335798563369607,0.02053756774362172,-1.294161724150816,0.04124365621305454,0.22468106319252978,-0.28631336396494067
1.7177023887634277,13.905365007882176,2.9258418318083583,2.512380813703997,3.805221055414679,1.5126783624220506,-0.032524994212623795,0.04629799056588942,-1.2734165315517696,0.0420391292696156,0.22235971412373612,-0.11606745343968328
1.7377045154571533,13.94323994414989,2.9406953497896438,2.5120562602510645,3.800594480416913,1.4942036702464818,-0.0321396385569648,0.06173961218725149,-1.2500484134908665,0.042709717996688816,0.2205273769629157,-0.09161685804102149
1.7581970691680908,14.09495257436293,2.999169047257713,2.5108040860680463,3.7941472549855457,1.437228731989243,-0.030433268742514587,0.07637536698560686,-1.2269647808676392,0.04320576554229336,0.21208584451539547,-0.42207662237601085
1.7777247428894043,14.17085176934659,3.027669718826606,2.5102040907788896,3.7958209668576557,1.4129121084572547,-0.02956488150914433,0.09099234013096247,-1.204859485015448,0.043619400350373386,0.2107288876608604,-0.0678478427267537
1.7977244853973389,14.208583769058686,3.0416008191850366,2.5099125635233093,3.7903618707465854,1.3972182154322632,-0.02906872238308853,0.11446883066339604,-1.1792202510145522,0.04391074813850295,0.20894917390347967,-0.08898568786903649
1.8177623748779297,14.28441542658065,3.069310977974733,2.509339987000351,3.7928795595461504,1.3738784229477834,-0.028188201057975537,0.13717251253135396,-1.1549919947682556,0.04412943706187037,0.20546006029990593,-0.17445568017868673
1.837782859802246,14.322117107422626,3.082862945551104,2.509063288250647,3.7876063278183825,1.3587986515222377,-0.02765891425452263,0.13793511913584322,-1.1430926621261048,0.04423458542912081,0.20438135169540317,-0.05393543022513825
1.8576300144195557,14.435579375317785,3.1229935504895745,2.5082568084467574,3.785296089065402,1.3214165739724137,-0.026234574512453764,0.13615304397872524,-1.1143469364223302,0.04418000296113407,0.19843284731676603,-0.29742521893185714
1.8776805400848389,14.511312452540338,3.1492008481134186,2.507740946560386,3.7880085921216873,1.2994036313467638,-0.02535197918509372,0.13524036423744723,-1.0872135573117732,0.04407051149407276,0.19637597534519546,-0.1028435985785281
1.8977360725402832,14.549013493011728,3.1620492255805144,2.5074935235242313,3.784216903963649,1.286261081513648,-0.024800978062135992,0.14505944160399178,-1.0516622984666018,0.04387020485364738,0.19507199203659864,-0.06519916542984117
1.917997121810913,14.624727497011081,3.1875663774555067,2.5070062622967852,3.78721618865625,1.2655654717138847,-0.023925968600918134,0.1548672705035191,-1.0182518540133738,0.04362305323092181,0.1916151835792017,-0.17284042286984658
1.9377493858337402,14.700271667704726,3.212513687355181,2.5065431484888485,3.78464803275999,1.2414883856625274,-0.02288975774258068,0.1597893650524353,-0.9821366450792465,0.04323466528861959,0.1887178604978903,-0.14486615406557046
1.9576876163482666,14.813750918333275,3.2492135566252207,2.505880209755216,3.7856450887269935,1.2094698961960912,-0.021474294418437626,0.15217833138101303,-0.938799984290265,0.04270247070476983,0.1839378104368805,-0.23900250305048942
1.9776501655578613,14.889493802132266,3.2732179424403944,2.5054592275022216,3.7886214948965002,1.191103754117574,-0.02062579633107598,0.1456390818239483,-0.8982783337469555,0.04214285276393572,0.18195311471663,-0.09923478601252533
1.9978389739990234,14.96529497655635,3.296862925111669,2.505055101510337,3.791477650472865,1.1735204007663436,-0.019788756306897005,0.1401496032038862,-0.8605109951840668,0.04155683497058061,0.17926814295741345,-0.13424858796082795
2.0177786350250244,15.003014127718556,3.3083588242146633,2.5048672691040066,3.7885816508213326,1.160913143585129,-0.019208878046876206,0.13430070781576917,-0.8228290816008705,0.04088880382664333,0.17802065299369607,-0.06237449818586871
2.0377085208892822,15.07881227680535,3.3314149055350324,2.5044912238657115,3.7912168110605937,1.1448120958014383,-0.018397932357567752,0.12936639892602514,-0.7876959715425543,0.04020284488925399,0.17538459017808927,-0.13180314078033994
2.0577266216278076,15.154599799498929,3.353989994203068,2.5041361718866013,3.792168495861808,1.125303625026972,-0.0174793091892563,0.1075290221388191,-0.7531403222272869,0.03942787476670519,0.17257062463423,-0.14069827719296324
2.0776734352111816,15.268409231041213,3.3873215536198455,2.50363278400556,3.795156870963649,1.1005598733934734,-0.016210729267159597,0.08406435188692822,-0.7134847370681502,0.03854427016005509,0.16876532513895004,-0.1902649747639984
2.097644805908203,15.344327710687407,3.409192563060456,2.5033162192141996,3.796619106259715,1.086664297347842,-0.015448705201296473,0.06246754434374319,-0.6765157574347828,0.037657678397061585,0.16720163916258235,-0.07818429881838451
2.117672920227051,15.420319618547845,3.4306973433420627,2.5030193049894134,3.7989354120111414,1.0714571005905287,-0.014591633894311043,0.032401832612599005,-0.6015863510656932,0.03670681928065119,0.16476988741606835,-0.12158758732569996
2.1375887393951416,15.49634297514815,3.4519675662233493,2.5027362090140404,3.80081641563628,1.058693949767885,-0.013819254089707654,0.024228127950129862,-0.5259817941464227,0.03573219620492368,0.16303275970480247,-0.08685638556329422
2.1577532291412354,15.572363641098201,3.4730410270278744,2.5024669056771938,3.8012253930505966,1.048886725504284,-0.013114309508323306,0.016792148620348592,-0.4556013556518889,0.03476322669998098,0.16153789490530812,-0.07474323997471721
2.177644968032837,15.686566292657737,3.504032507647779,2.502090786758526,3.8049169262405695,1.0294820189700717,-0.012054299052014978,-0.010851569163099678,-0.39974619545117296,0.03371084846218062,0.1581143663093889,-0.1711764297959606
2.19769549369812,15.762660722121526,3.524545708818904,2.5018563734196313,3.8044408018063827,1.0220100850468705,-0.011390500650420134,-0.036417684112779694,-0.3481484631121424,0.03267110629895056,0.15757245086943472,-0.027095771997709406
2.2176785469055176,15.762691724537403,3.5244837738147505,2.5018558444775523,3.80512703175127,1.0206543451631915,-0.011421088118601624,-0.06435731886413312,-0.29455796019569075,0.03173214861976156,0.15758541564830786,0.0006482389436568425
2.2377750873565674,15.876916703915537,3.55480766234739,2.501528576328895,3.8057311744437974,1.0075388440280624,-0.010445007017801844,-0.10592930263311696,-0.25880273666521975,0.03072906677744644,0.15489468075990365,-0.13453674442021057
2.2577619552612305,15.953007510641115,3.574908895281053,2.5013257558028132,3.8032202697037163,1.002692534226529,-0.009840344298998943,-0.14469876118679417,-0.226375846313126,0.029739455208546196,0.15466065788199668,-0.011701143895348487
2.2785959243774414,16.02904052940879,3.5949194697795006,2.5011348315098476,3.799961533309951,0.9984621908373943,-0.009255338602826567,-0.18072182269667264,-0.197191856682486,0.02876337463466065,0.15391275065153387,-0.03739536152314038
2.2977612018585205,16.067293641544428,3.604695899378971,2.5010482833022736,3.8039149929075107,0.9927553460072345,-0.008865644128833696,-0.20827377619123977,-0.16522171605750657,0.027790168650684885,0.15281618504902328,-0.05482828012552954
2.317722797393799,16.143421437253878,3.624488906781329,2.5008790160070196,3.8022532769155486,0.9887301692309952,-0.0082338222126194,-0.27584900148333763,-0.13649714134321586,0.02680158660461822,0.15230579416821266,-0.025519544040530917
2.337609052658081,16.25754444544919,3.6540604733524598,2.500649463232044,3.798670976590596,0.9842921561668728,-0.007282494611531518,-0.3342644873327901,-0.08566001208667635,0.025735497105352483,0.15144286556843767,-0.043146429988749624
2.3577818870544434,16.333447368706295,3.673732340618232,2.5005088905748387,3.791443311779565,0.9830485462838527,-0.0067782442946475435,-0.387677547537531,-0.0394653810463017,0.024693537678466312,0.15147261313786142,0.0014873784711877391
2.378051996231079,16.40919538397535,3.693388270719593,2.5003781961296077,3.7831964808834195,0.9826833385266506,-0.006294593723908351,-0.436199678593581,0.002198890238535715,0.023675485324257395,0.15142418635443233,-0.002421339171454484
2.3976902961730957,16.447421193860745,3.7031665897519543,2.5003293613536584,3.787863788663035,0.9814286209496753,-0.005775908324641095,-0.46674469732975105,-0.012929730938325173,0.022632922044659658,0.1509503636457401,-0.023691135434611432
2.4178690910339355,16.523083251443794,3.7227913847465337,2.500218301634805,3.778251255663792,0.9809883125610418,-0.005333447760075381,-0.4939601928282012,-0.03169748630787398,0.021617656809401,0.15123674411414578,0.014319023420283905
2.4378039836883545,16.598875444012062,3.7423786396702217,2.5001280487748225,3.7761884747518475,0.9787781276263285,-0.0046035372172363535,-0.5144550111224881,-0.18866374861703442,0.020543684522233475,0.15051311040094006,-0.0361816856602859
2.4577012062072754,16.71208250243196,3.77184324041927,2.500007881321326,3.7641309441137425,0.9786160521596434,-0.0037494603164802583,-0.6207657583904204,-0.22783162420100897,0.01939737603012423,0.15085129386308038,0.016909173107015896
2.477828025817871,16.78723428231314,3.7913673190886303,2.4999366971082004,3.7507193608573677,0.9736569589672378,-0.003372653073852839,-0.7190736870509385,-0.26828737352582427,0.018289742339063754,0.1501438687546206,-0.03537125542298902
2.497650146484375,16.86236392758801,3.811292936415139,2.499879418821683,3.742584200280303,0.981093137793306,-0.0033821249224351966,-0.7917674712711319,-0.2820927744682338,-0.04534536376525702,0.1517983343120055,0.08272327786924549
2.5176615715026855,16.97453615972133,3.8409522555040776,2.4997977570863457,3.7256743062452475,0.9832337854846911,-0.003462069805894877,-0.8325410847029152,-0.20469782215542184,-0.03987437967401244,0.1520207600454513,0.011121286672288733
2.5378286838531494,17.048880629307586,3.860580829761618,2.4997208917383604,3.7086506925355787,0.9798602574888854,-0.004207146269062112,-0.8691305651283071,-0.13371010777208103,-0.03467866695327387,0.15179463096810508,-0.011306453867310218
2.5576581954956055,17.08613962204372,3.870591274752407,2.499711229052476,3.7057794603448024,0.9848822406030427,-0.0035876839371330052,-0.8940322438527085,-0.07807330426201488,-0.030229240883093273,0.15278643831732186,0.04959036746083889
2.5778205394744873,17.160074937447238,3.8902767677272414,2.4996337147214693,3.6876818834489744,0.9838361466873274,-0.004149677690890327,-0.9150927031845559,-0.027344433680673085,-0.02600771917894247,0.1527799544641999,-0.0003241926560981767
2.5977401733398438,17.197076916405518,3.9001179327888913,2.4996041367084527,3.6831130723009364,0.9836716375369586,-0.00401827754690502,-0.927608375631816,-0.007219803753586977,-0.022298508066648723,0.15291027371384525,0.00651596248226749
2.6176233291625977,17.34379430738292,3.9393437604699204,2.4994300912076155,3.6491795621514815,0.9809244104186424,-0.004773133798954909,-0.9090438273114126,0.022113944343713658,-0.01873309356185586,0.15339276172141547,0.024124400378511268
2.6377663612365723,17.41659740914633,3.958968415791825,2.4993311099374784,3.6311979157603242,0.9816248682254853,-0.005113751226032167,-0.8888542035116958,0.04723972348987651,-0.015360427690640001,0.15386374845954487,0.023549336906469875
2.6576602458953857,17.452857870841658,3.9687718625120727,2.4992809790191077,3.62253625275416,0.9818111744612108,-0.0051944759165854825,-0.81927129852407,0.05157613270901158,-0.0123524680625445,0.15410311023355305,0.011968088700409218
2.6777517795562744,17.525149271623096,3.988418537080258,2.4991748110574448,3.6068285261414874,0.9828605630272803,-0.0054128573598243735,-0.7518604963555744,0.0528618483531128,-0.009513539349089757,0.1546121014038926,0.025449558516976722
2.69767689704895,17.561058728054462,3.998259326742752,2.499117010216651,3.5956410079329606,0.9831717620303225,-0.005582774496710924,-0.7558368855093652,-0.019226665406671627,-0.0069575690330460575,0.1549934652775531,0.019068193683025036
2.7177507877349854,17.63282024487491,4.0179141580539275,2.4990041260713034,3.580505997249741,0.9820742282602997,-0.005697621225754333,-0.7572410600223924,-0.09036889256327466,-0.004551869410469541,0.15505467467059653,0.003060469652171882
2.7376997470855713,17.70394363726518,4.037696173741893,2.4988751021607665,3.5566300203036305,0.9836100394129688,-0.006135549258333357,-0.8113720719620751,-0.22577679148893703,-0.0022986535284410443,0.15625033602056648,0.05978306749849782
2.757725954055786,17.77491065264331,4.057314464438677,2.4987520746457768,3.539910889811887,0.977785786054685,-0.006160157613517334,-0.8595627460802717,-0.3557518025706301,-0.00018521228996166395,0.15543685285267284,-0.04067415839468236
2.7777457237243652,17.84535474110889,4.077269101886871,2.498645981693858,3.5190301612906136,0.9836680514326873,-0.0016318124528353704,-0.8204863148364534,-0.29869649098279316,0.4853461004480751,0.15743934370562362,0.10012454264753945
2.7977049350738525,17.950521761620575,4.107022417122464,2.4985137066835823,3.4938742486899055,0.9857400952299931,0.00292067081126001,-0.7577229548788667,-0.2341163278356378,0.4361204322329082,0.15802102703058862,0.029084166248249943
2.817796468734741,18.020251741905,4.126694086391901,2.4986561797045193,3.4793233990487793,0.9816012801766361,0.01117033911215239,-0.6978361007767776,-0.1817759506765074,0.38923199246597023,0.15757299972316519,-0.022401365371171877
2.8378095626831055,18.054895651833824,4.136709804740969,2.4985236105078164,3.4677789297454837,0.9853753965578929,0.007713075803842823,-0.8347476275136051,-0.18306831056221382,0.34850149357917065,0.15881466593896798,0.062083310790139734
2.857677936553955,18.12407571889202,4.156380179078234,2.498744954992328,3.449808973179504,0.981628943073759,0.014292121653210048,-0.9603930342469665,-0.19299178452775637,0.3097255322734611,0.15841476043222302,-0.019995275337247875
2.877715587615967,18.192730689799212,4.176011183193296,2.499048270016628,3.4265439950046046,0.9802104683074889,0.019470017425631612,-1.1069221678361034,0.016248228948179576,0.2739713494076547,0.15913356326638484,0.03594014170809068
2.897706985473633,18.261124392072784,4.195561284968565,2.4995189603430035,3.406668738797404,0.9792824174092548,0.02559770494921198,-1.1995670797694367,0.12880489802058198,0.24018892866226854,0.1595730020007302,0.021971936717268825
2.917703628540039,18.396914969521024,4.234417781759799,2.5008454126077555,3.370050181339277,0.9756936380302624,0.03765862299014323,-1.3123676210728983,0.3479837182016952,0.2065022166169908,0.1600821597903317,0.02545788948007388
2.937739133834839,18.46404656903725,4.254015045950592,2.501637728069575,3.342772929345346,0.9847090708862504,0.041466506158069065,-1.4134247906475215,0.5508770086412388,0.1745764839523398,0.16270736123730423,0.1312600723486268
2.957648992538452,18.49775533917735,4.263527128247477,2.5021216488126115,3.3383170313802113,0.9808457108670952,0.04468002314363204,-1.4550731924378568,0.696947387196627,0.14544625472045541,0.1613150648784103,-0.06961481794469648
2.9777257442474365,18.56422827955213,4.283292568196846,2.503042475901658,3.3088641434348482,0.9961452003468781,0.04731086188878564,-1.4889355087176792,0.8310270604320246,0.11789852392991823,0.1659018281851865,0.22933816533881046
2.9977405071258545,18.597621503268066,4.292675676011102,2.503603357577388,3.30386227332531,0.9882170526578288,0.050587787087196925,-1.5701566810161367,1.0016315243412057,0.09264813147297624,0.1631258079447644,-0.13880101202110584
3.017717123031616,18.728973961481266,4.3319286045999075,2.5058392363540634,3.2514276486623004,1.0032410820545519,0.057447883973989734,-1.6402430764349427,1.168572659351562,0.06768878462740648,0.1692671767080749,0.3070684381655253
3.0377650260925293,18.793670264858292,4.35223751369901,2.5070001411862055,3.2180003898993674,1.0281560357013135,0.05856427649045879,-1.70093668937369,1.3204411181078537,0.0441914170576643,0.1734699856232349,0.21014044575800028
3.0576164722442627,18.825983638159475,4.362030660134999,2.507659185214089,3.207412546286725,1.0278747279711775,0.0608538561782024,-1.670668051217418,1.5824899873875018,0.022816121592335384,0.1725614943842948,-0.04542456194700506
3.0777008533477783,18.889799986237527,4.382920970581217,2.508879466670308,3.174337286502141,1.0619532682797896,0.06110743313594251,-1.636162741348386,1.8215847551534081,0.0027587303778084794,0.18093800724659115,0.4188256431148174
3.0976829528808594,18.921662283905718,4.392944024751466,2.5095834436018665,3.1635121665271475,1.0625966954500854,0.06362751387999917,-1.632327032482002,2.072207301583343,-0.015610101511680598,0.1787680485901295,-0.10849793282308173
3.117800235748291,18.984606655788838,4.4146259293047665,2.5108517074481878,3.1309602639817165,1.1063508363432508,0.06314164029398325,-1.6217577276882975,2.299339853532041,-0.0327797023436488,0.18956902767933537,0.5400489544602927
3.1377055644989014,19.04698932828955,4.435743955160964,2.5122786425055366,3.1005112708123406,1.1170633017130565,0.0666445743888344,-1.601963100795977,2.511675477840682,-0.048988860625193406,0.1892944517416657,-0.013728796883483163
3.157658338546753,19.139244986119,4.469393163360827,2.5143752234344707,3.0517960863087557,1.1655645426579653,0.06846000957561035,-1.5284124724554742,2.666747996331888,-0.06453864335679203,0.20129515929047503,0.6000353774404665
3.1776819229125977,19.199980254460435,4.493247172638082,2.515730535270889,3.0219842437955773,1.220288902514706,0.06702306413833349,-1.4523656677550891,2.8025115797651163,-0.07897206701535879,0.20857669702858983,0.3640768869057398
3.1976521015167236,19.259914720947553,4.517007176905791,2.517232269543453,2.9883798349275033,1.2469130954129097,0.06972721537787423,-1.2933633227219992,2.798655315881217,-0.09253069220678789,0.212835355847095,0.21293294092525894
3.2176313400268555,19.348671745258837,4.555192399174947,2.5193789794761057,2.9416716761920743,1.3176819753610802,0.06951808147862998,-1.132715787183496,2.773275681919446,-0.10521019991867607,0.22702825367486623,0.7096448913885611
3.237760066986084,19.407289060285496,4.582098707102141,2.5207475047890515,2.920576352657276,1.3728446490994006,0.06729557474253663,-0.9777562727962965,2.7420280809793662,-0.11687314096386499,0.23230785293551692,0.26397996303253457
3.2576165199279785,19.436026632491984,4.595828505649615,2.5214568670996953,2.8996589776565687,1.3966021234247499,0.06712544283079881,-0.8616047756535282,2.695344069324762,-0.12703185435281716,0.23590260832874854,0.17973776966158095
3.2777609825134277,19.493855058746934,4.624296301734835,2.522773337526605,2.883559126558696,1.4500084015256303,0.0644907394870167,-0.7489602423628958,2.6446211018946704,-0.13629034708787358,0.24439415385012264,0.424577276068705
3.297727108001709,19.522067936937148,4.639086873956597,2.5234098529912474,2.8611532964078825,1.4820120473737448,0.06292258154851366,-0.5422986018966074,2.7240923773541117,-0.14394660122479008,0.24814295792488572,0.18744020373815395
3.3184266090393066,19.63504161478071,4.700948040906272,2.525764726548669,2.8157633111182743,1.6004409251887568,0.05587506662470282,-0.29929704616053465,2.6693355462208,-0.14968405901647333,0.26911311267890037,1.0485077377007324
3.3377695083618164,19.691312608184653,4.733486615889739,2.5268519422516333,2.812105252381254,1.6532035122689843,0.05282961575163412,-0.0685258385751348,2.605422325163772,-0.15475073593258032,0.26813009638171703,-0.049150814859166836
3.35774827003479,19.718794764351724,4.750427000901863,2.5273238084565475,2.795041053487469,1.6859764228001743,0.04981918680896689,0.14839687015424266,2.442173836524206,-0.1582975036063512,0.27509094108679744,0.3480422352540202
3.3777859210968018,19.77473913428683,4.784624035279011,2.5282883239317786,2.8000796662976493,1.7331798604571145,0.04662237704418075,0.35351902748737035,2.278029229989253,-0.16129286289684466,0.27808960992520015,0.1499334419201359
3.397688150405884,19.80189156988233,4.802532213294713,2.528677528962779,2.780618514164361,1.7668388408620772,0.042944639665847405,0.5500097465661143,1.9532165334763405,-0.1628248259067214,0.28350501743235634,0.27077037535780946
3.417757034301758,19.857626442959358,4.838238550542093,2.5295037765424735,2.793483989205761,1.8027501726271162,0.039676464587974705,0.7345730929849962,1.6397999497605016,-0.16392115662850942,0.28443646419167123,0.04657233796574456
3.4376654624938965,19.912116632237325,4.876087040589672,2.5300835766689227,2.7717673811538086,1.870410016087506,0.031642930861842715,0.9228884791934954,1.2097296862626017,-0.16275390114846658,0.295330284316615,0.5446910062471888
3.458137273788452,20.022366896496575,4.954106558337892,2.530922927146972,2.7769879354327247,1.9727761612524866,0.017536141175797406,1.083162294616602,0.944342552580157,-0.15843597412711502,0.302727162554703,0.36984391190439947
3.4777324199676514,20.07813343811357,4.993733712169465,2.5312422539666395,2.8001649576398466,1.9890848356872195,0.014411153720130776,1.2327859099784135,0.6880242676961166,-0.15405217118402711,0.2984319745938695,-0.2147593980416751
3.497654676437378,20.105578567293776,5.015038998160186,2.531149252023666,2.796972205171212,2.033922110188905,0.006410942756734522,1.4462261855102263,0.5540015889334416,-0.14792396172134623,0.3064688554843604,0.40184404452454636
3.517747402191162,20.161820684519277,5.055819180251911,2.531248291383585,2.8278977323953063,2.0436410531737366,0.0035132032607273853,1.643697118075667,0.4174903212827433,-0.14186097786701196,0.30040758466192763,-0.3030635411216398
3.537719488143921,20.18953473677331,5.077636861723945,2.5310905192543993,2.826997415177028,2.084758242215391,-0.0029888360932186814,1.7545430851933583,0.27892288843038926,-0.13462793773964196,0.3081746249391273,0.38835201385998275
3.557668447494507,20.27443825128933,5.141430448425576,2.530834481205834,2.860380985745407,2.122305616017517,-0.009816047812268318,1.7839570247786893,-0.005701508355352792,-0.12637566527041105,0.3049442419064645,-0.16151915163313824
3.5777103900909424,20.33200443077159,5.183857100429957,2.5306134234431292,2.8963222228122483,2.119454378320535,-0.012263007931962793,1.8095369840704885,-0.27726769951768965,-0.11835946138407981,0.3017507123143939,-0.15967647960353215
3.5976736545562744,20.389673981610052,5.227648386720709,2.5302991525865113,2.9186916312881634,2.1482020758595586,-0.015553903301588026,1.866988344982191,-0.5709589164257042,-0.11019652889203974,0.30400182534577347,0.11255565156897962
3.6176955699920654,20.4484246920544,5.270479226735805,2.52996656641651,2.9565476757674247,2.1339408456633437,-0.017678368538237503,1.9174702808073822,-0.8532861154745243,-0.10229292205565786,0.29674243167388425,-0.3629696835944607
3.637805223464966,20.47796944932257,5.29284321038739,2.5297806642121548,2.973048335701618,2.1542708081613786,-0.018712812124155504,1.9471614036587992,-1.039517456749598,-0.09483914543118006,0.30087296089666893,0.20652646113923367
3.6576921939849854,20.598493968525606,5.380011656078604,2.52898388517355,3.0526562505524284,2.156309327219611,-0.0215975307084351,1.9446038824725418,-1.143495349854959,-0.08722503642060901,0.29044234584212614,-0.5215307527271396
3.677841901779175,20.659935723636217,5.422902365462266,2.5285349837755953,3.091502761182536,2.1324252498702503,-0.023268119100968192,1.939655432545901,-1.2444044366173603,-0.07987797316414447,0.28786723928465063,-0.1287553278737752
3.6976699829101562,20.660038022208614,5.423347304336167,2.528569185173664,3.095147051451529,2.1459848365806624,-0.02202030195271488,1.9623543194020163,-1.304433179346474,-0.0735624017613392,0.29064388757473214,0.13883241450407535
3.71816349029541,20.722334709315955,5.466001976014035,2.528114477175379,3.1345815150013028,2.119273194630496,-0.023430145740629342,1.9803132816073603,-1.3671720156198055,-0.06745671219935367,0.2819250467606933,-0.4359420407019421
3.73770809173584,20.785805924360133,5.508963477019002,2.5277375451327244,3.18346133526504,2.1113723644856472,-0.02204213248761063,1.9178816390243538,-1.3909813764445589,-0.062178283924563184,0.27978856155985987,-0.10682426004167134
3.757711172103882,20.882521895893028,5.571813883375535,2.52712927140495,3.250754499764245,2.071427322370658,-0.0215482402898935,1.8597689347377195,-1.5737271493286218,-0.05740080278424741,0.2690626102469382,-0.5362975656460822
3.7777721881866455,20.947905145599922,5.61291596579421,2.526687137717353,3.287382089105269,2.0382026452550734,-0.02264968407592857,1.8032539159883962,-1.7472124882179527,-0.0527674562177684,0.26572531206506644,-0.1668649090935892
3.797703504562378,21.014735221260096,5.653395648072023,2.5263372013156884,3.342033626537757,2.0060106328859826,-0.020870729763681498,1.8126726732926899,-1.667238194661532,-0.048906308590992,0.25813235455589423,-0.3796478754586108
3.8177592754364014,21.081938824694863,5.693187157681797,2.525910257717388,3.3783427419638894,1.973367930268182,-0.021811102566418376,1.8174825457206387,-1.598951909902107,-0.04514804356396536,0.25382923926349577,-0.21515576461992314
3.837736129760742,21.116343534183407,5.71283210419534,2.5257745203690813,3.4113470454360404,1.954936473201495,-0.017577670206680163,1.789844896187359,-1.8053528099388647,0.2338454958908889,0.2503756877921295,-0.17267757356831392
3.8576717376708984,21.219970565042313,5.770500323550144,2.525251619921718,3.4784365599303677,1.894336926323597,-0.011755695147211545,1.7547981382244957,-2.0184764613246995,0.514574053816347,0.23796080483579152,-0.6207441478168985
3.87772536277771,21.289887881844965,5.8079697921059275,2.5251369704916193,3.5131758102111594,1.8519416321156386,0.001149066727951392,1.7190057232391571,-2.2189700179375587,0.7720777095920341,0.23425866494152547,-0.18510699471330216
3.8989500999450684,21.36049277732549,5.844552084827991,2.5253303965391187,3.5471920665775034,1.8056605602969613,0.018976291988835284,1.6825049658893265,-2.4070983709204024,1.0069131782225413,0.22666838557610625,-0.3795139682709614
3.917875051498413,21.397083444458776,5.862266673077769,2.5248751069138895,3.5864875530664015,1.7759876471857894,0.012117092713294008,1.5929788705991819,-2.5526948914593253,0.8962887699779143,0.2227338281504121,-0.1967278712847076
3.9376587867736816,21.505977471089572,5.914505822859657,2.525315106898598,3.6507386923149046,1.7012986620083483,0.029718928193390746,1.5573928405132706,-2.6920289358189384,0.7923544251256313,0.2091611232987689,-0.6786352425821596
3.957657814025879,21.579301295545008,5.947984437451298,2.5260612889853586,3.6815214510220122,1.6461207002834237,0.04457022187810257,1.5207029593531733,-2.8246599794534095,0.693635029300094,0.20425985567017735,-0.24506338142957773
3.977705478668213,21.654053588888413,5.9804688230200815,2.527094539687473,3.7322851985615215,1.5915637891986414,0.05856972055499555,1.5588275808744778,-2.9864188301956966,0.6025493114648145,0.19500564962126354,-0.4627103024456902
3.997957229614258,21.72901325923132,6.011692560487343,2.5283806092649765,3.7637862843114576,1.5303059486124457,0.06974941724398435,1.5901652360220324,-3.1376252580659476,0.5162016492267484,0.1876080003465641,-0.3698824637349718
4.017653465270996,21.76708389040331,6.026950026842323,2.529267775866644,3.7891130496577534,1.5004612851575754,0.07900200949066645,1.5584662597431,-3.3257019119303215,0.4374018951333392,0.1843872488187297,-0.16103757639172045
4.037626266479492,21.881632309454282,6.070715291124797,2.5321010102506474,3.8396750304844764,1.4074560652110473,0.09910885253888758,1.4354158635706684,-3.3642344526588293,0.3608698525745485,0.16869205218059946,-0.7847598319065119
4.057724237442017,21.958704900790135,6.0981890949398405,2.5341504723544506,3.8671879639869893,1.3398024138937654,0.10559642260713345,1.3165729769868084,-3.4008055238077897,0.28858773410872574,0.16248593589000526,-0.31030581452970996
4.077683210372925,22.036626109351076,6.124485307358921,2.5366934773438006,3.9013812210398586,1.275469456121521,0.12002450180698722,1.249984979543944,-3.4236226275380046,0.22073411052049088,0.15308727108186826,-0.46993324040685014
4.09770941734314,22.11489931787019,6.149308521216246,2.5391337890839245,3.925719432146677,1.2067805596119576,0.1237936830780844,1.1839256423036024,-3.4450338562832172,0.15683590225540317,0.1443640080415478,-0.4361631520160225
4.117743730545044,22.154530314488902,6.161151362134821,2.5405716938150498,3.9455236599018004,1.1708280015621622,0.13019184433860662,1.063703979321177,-3.4081930701953067,0.09877175194517694,0.14095971949586383,-0.17021442728419878
4.137871026992798,22.313766402481278,6.204956879067934,2.546112248568558,4.001357948152359,1.0277787646282315,0.13964084981315145,0.9960819896362318,-3.249972727689839,0.04283678493198101,0.1169585012131713,-1.2000609141346263
4.1578028202056885,22.393988287977017,6.224872435364102,2.548910081183113,4.020606424629907,0.9642662363965391,0.1399677414135209,0.9288293846933842,-3.10315643882029,-0.00956563777231984,0.11354003024428705,-0.17092354844421287
4.177737712860107,22.434480496841452,6.2339752940865125,2.5503606902853186,4.035265718207544,0.9227341092617773,0.14076413938842544,0.7794579158442065,-3.003210304313879,-0.055931765701114876,0.10744955601505435,-0.30452371146163504
4.197840929031372,22.515332115290807,6.251835799454639,2.5531618517404553,4.049422859573094,0.8636364314233369,0.1392078249094008,0.6374752881125101,-2.9072077428100327,-0.09918734855745842,0.09912980803194271,-0.4159873991555818
4.217725992202759,22.556107642722406,6.259680037045781,2.5545684864845297,4.061670584858693,0.8160624263914649,0.13829637232185843,0.49116714709563825,-2.904975139509743,-0.13697375310896423,0.09335365244511351,-0.28880777934146007
4.237877368927002,22.637429897936304,6.275420375048547,2.557304636601532,4.070091437758344,0.7579745525545732,0.1352017554025736,0.3521150245656696,-2.9040206092478122,-0.17204003598720363,0.08508938771895469,-0.41321323630794105
4.257708787918091,22.719523738875104,6.28898486579254,2.559962167856328,4.09181557938757,0.6750670903226695,0.13107405448377393,0.21568544323480998,-2.9152913956701747,-0.20206022258089423,0.07274300054861982,-0.6173193585167436
4.277720212936401,22.842837201032946,6.307452989794886,2.563777216104015,4.110184593559248,0.5747273239572057,0.12403301478926249,0.06275260189392846,-2.881490462360061,-0.2282768766593126,0.05851592210089196,-0.711353922386393
4.297732591629028,22.925043668939345,6.3183733438758365,2.566210582183546,4.1099804058288845,0.5174109498958926,0.1192234415383976,-0.08178780797574603,-2.850629196596894,-0.252323270761081,0.05236330608786055,-0.30763080065157045
4.317701578140259,22.966555969824725,6.32305204954691,2.5673575121959122,4.119544825190923,0.48033435817081993,0.1155770102002336,-0.24872934820720066,-2.6810934578795904,-0.27229005536586354,0.04717807177636324,-0.25926171557486555
4.337641000747681,23.090529961973196,6.335830312607283,2.5706781876749645,4.124778698691365,0.3890863899175781,0.10653227300609203,-0.4282758923193229,-2.481960679845219,-0.2888477984053865,0.03207018580713861,-0.7553942984612316
4.357794523239136,23.17292853196194,6.343128481093238,2.5727500442066282,4.114521076706788,0.3413648045720988,0.1006037992227805,-0.595447706099901,-2.2916539248372954,-0.30372281805271373,0.027122403171473408,-0.24738913178325994
4.377700328826904,23.255786147192076,6.348576213441662,2.5745915769600045,4.1186450374045425,0.2727094487301759,0.09149712466945337,-0.7390864139841878,-2.1592037913763322,-0.31438817621795995,0.01566209247763828,-0.5730155346917565
4.3977131843566895,23.33800218661857,6.353607145813878,2.57635799934213,4.102515452631193,0.23080894010603717,0.08511411483092109,-0.8721263475920452,-2.0316568176646057,-0.3236884153848472,0.010648184231994318,-0.25069541228219805
4.417675495147705,23.37942591720724,6.355061431443398,2.577075021393392,4.105120554945802,0.19083975061061478,0.07841855548467351,-1.002755407587776,-1.8256786018164592,-0.32974037780220666,0.004138659179215409,-0.3254762526389454
4.437617778778076,23.50258366240965,6.359114317739487,2.5791698281643414,4.085625923875117,0.11073233688286317,0.06540955192191027,-1.2719667300111883,-1.9623513868848719,-0.3324999213975116,-0.009690633651260772,-0.691464641523809
4.457735538482666,23.584024800942327,6.360927941366236,2.5804113809571034,4.057654410195968,0.07021157332093703,0.058739563335844444,-1.5220297959301654,-2.0878915280971007,-0.33434958597292663,-0.014852794201052788,-0.2581080274896008
4.477731704711914,23.665583179926216,6.36117421661963,2.581400713259315,4.044298914372363,0.011367258559369807,0.04937118655253555,-1.675348298756827,-2.1642585137023658,-0.3332491050843492,-0.0254942793569799,-0.5320742577963555
4.497853755950928,23.746124484525915,6.360963994473266,2.582321594393931,4.0093614987107005,-0.03261908014570795,0.042722842161001265,-1.8163671256663079,-2.233143652753713,-0.3314749002022886,-0.032491862184984566,-0.34987914140023335
4.517768859863281,23.786676557390813,6.360535764507046,2.5827450506083465,4.005653522529518,-0.05473799048412782,0.03993761028720699,-1.9313924548948298,-2.299366618351657,-0.3286745839113837,-0.03589811319574254,-0.17031255053789884
4.537613391876221,23.906501809561554,6.3581096537521615,2.583859371872953,3.9616279727797883,-0.11679716837588139,0.03200834560358304,-2.0140433425963535,-2.3500610175021786,-0.32448024969055317,-0.0484812476639882,-0.629156723412283
4.557728290557861,23.98532652378446,6.355300616917383,2.5844349459836704,3.920599403220897,-0.16425567164382532,0.025564613542989306,-2.0872611777461496,-2.3948103584673954,-0.31981611982281505,-0.05714732255733024,-0.43330374466710175
4.577678442001343,24.06374966319682,6.3519679773645255,2.585003952265403,3.887820932463227,-0.20066743489511457,0.021892062353126532,-2.2018426850682413,-2.3057228086181105,-0.35577643912909585,-0.06423910878699202,-0.3545893114830889
4.597707748413086,24.14105867214082,6.347499310154547,2.5853684112408764,3.8427377223606674,-0.24590985426605227,0.014445284080072892,-2.304519639221617,-2.2188927286573343,-0.38834326520522294,-0.07409671201777446,-0.49288016153912206
4.61766791343689,24.217619867868713,6.342363925044914,2.5857331693451338,3.7990024837309018,-0.2854007073889647,0.010744831332428274,-2.501814136868595,-2.213937679743407,-0.3733660899980367,-0.08272135628190602,-0.43123221320657823
4.637811660766602,24.2930873466458,6.336213564585469,2.585874385326528,3.7471505216954526,-0.32961145771534284,0.00342629476786659,-2.6802836351617856,-2.2067744537242886,-0.3585077827502254,-0.09324185479958791,-0.5260249258840943
4.657715320587158,24.330578026329828,6.332819463125122,2.585985229058653,3.7245540566599793,-0.3514606678797253,0.002614744765107593,-2.7091298936375954,-2.2286971723118554,-0.3445936499504002,-0.09816169610567682,-0.24599206530444562
4.677682638168335,24.44136783476996,6.32135255331932,2.5859876515883577,3.6504095089954003,-0.41418091673502655,-0.0053153119884490506,-2.749210379408679,-2.024071639516379,-0.33012593607622187,-0.11519239604398201,-0.8515349969152597
4.697717189788818,24.51382397870975,6.312677310348269,2.585816276676943,3.59510235737932,-0.45269135049447135,-0.011774488231529469,-2.7799728795400687,-1.8284598397471932,-0.3158187152530858,-0.1260605364024645,-0.5434070179241246
4.717670440673828,24.58530450741951,6.303225021005523,2.585631067637262,3.5420702223034715,-0.49068027071109815,-0.015319872379587362,-2.790956343711699,-1.7732091310906006,-0.30169251063475894,-0.13776376232816911,-0.5851612962852304
4.7378249168396,24.655587380384706,6.29306046891957,2.5852652640244305,3.4862064953682066,-0.5255900016274871,-0.021214029961719928,-2.794133665828215,-1.7177288912708426,-0.2877548665183188,-0.1495808134336638,-0.5908525552747346
4.7576904296875,24.690194145498044,6.287498176407131,2.5850480208092033,3.4542986833712432,-0.5487916507254812,-0.023809125193761188,-2.833699754153214,-1.6896982595862056,-0.27421546842618133,-0.15729701147333008,-0.3858099019833139
4.777664661407471,24.79231779890656,6.270050598810357,2.584172404887891,3.361829148717329,-0.6056248529054561,-0.03302955876735611,-2.9276896219602873,-1.6820820705085668,-0.2595465500804859,-0.1770938279882608,-0.9898408257465352
4.79766058921814,24.85896328045178,6.257602358450397,2.583460867428098,3.302452370282014,-0.6391628212766426,-0.03807628393779567,-3.007686340770002,-1.6711753228239767,-0.24517555460955057,-0.18790572802097794,-0.5405950016358574
4.8176562786102295,24.924114091871168,6.244347161582952,2.5825991892702533,3.2356024936759695,-0.675215074730622,-0.044053932747388905,-2.9746683639644558,-1.6352756921462686,-0.23031850551225833,-0.2002884981102655,-0.6191385044643782
4.837640762329102,24.98815383235822,6.230521319685214,2.5816683165950347,3.1737903461287695,-0.7078654462155719,-0.04865840801522312,-2.932487937225752,-1.6550263664833218,-0.21558901921443074,-0.21122729538034424,-0.5469398635039369
4.857683897018433,25.051046261632404,6.2160319269775925,2.5806529934529236,3.115613619751802,-0.7411238411216059,-0.05282608259040236,-2.8841796505694726,-1.670033538632777,-0.20124188120079656,-0.22229018795977007,-0.5531446289712916
4.8777055740356445,25.08183849032449,6.208602453475779,2.580107200271849,3.0804831338547567,-0.756188517674082,-0.054954047222860694,-2.8616664012608357,-1.717582142276976,-0.18749703378481866,-0.22690704118239546,-0.23084266113126972
4.897702217102051,25.142877719309553,6.1931323560350755,2.578971517614778,3.0235412769460654,-0.7909558598219375,-0.058569642607515224,-2.8312167520646176,-1.757975336369,-0.17412421128060898,-0.23909023059578915,-0.6091594706696846
4.917742490768433,25.20223155219226,6.1772298598996915,2.577700939259697,2.9537323945613956,-0.8195711829678066,-0.06365465009033025,-2.722670500575241,-1.8210763925935787,-0.16036192156119855,-0.2495105015592931,-0.5210135481751976
4.937647104263306,25.28914828989504,6.152097603715391,2.5756558212994745,2.8591993612551883,-0.8668600729405371,-0.07015717702020197,-2.627866816705981,-1.89713299694338,-0.14586971274978505,-0.26706318055142386,-0.8776339496065377
4.957648277282715,25.34581320327543,6.134376407730913,2.5742244449259273,2.807619869275848,-0.9054796666507647,-0.07293381884272332,-2.5295016364764322,-1.9631796622785216,-0.13187714575213483,-0.277658035495846,-0.5297427472211069
4.977659463882446,25.400655299015135,6.116400159410941,2.572640483585953,2.737185075902293,-0.9323489310894735,-0.07794367018304603,-2.4724917869964798,-2.090839311707489,-0.11757796171467823,-0.28810871301758345,-0.5225338760868725
4.997763156890869,25.454908607354625,6.097327234923207,2.571059020682747,2.688355994206521,-0.9753203811435466,-0.0801567646130509,-2.409424472396743,-2.2039046114498224,-0.10382116082383498,-0.3008685903191557,-0.6379938650786121
5.017711877822876,25.48113482426685,6.087907288505145,2.5701894455342598,2.6491893819231347,-0.9861481525627175,-0.08283743267361782,-2.398807126428341,-2.394071809610686,-0.09052652421236963,-0.30412209489105324,-0.16267522859487737
5.037638187408447,25.559050920623875,6.057901438424591,2.5676117806884586,2.5643356633420202,-1.0387892877268476,-0.08685981310236672,-2.3305503108517245,-2.364998606639309,-0.07693300127512812,-0.32464698424205807,-1.0262444675502413
5.057666540145874,25.609876315308227,6.036654799036938,2.565860075063036,2.5184473135240495,-1.0857639421601153,-0.08826736620710442,-2.257500756772651,-2.3317881071238964,-0.0639178626289935,-0.3353947157756765,-0.5373865766809205
5.077665328979492,25.659209513786855,6.015306550228775,2.5640524057653025,2.459423336840442,-1.1131375388659959,-0.09015624428235386,-2.1818822582658073,-2.408536892704489,-0.05129929325159769,-0.34514502057916197,-0.4875152401742744
5.098875284194946,25.73164980842872,5.981172926484907,2.561299237646621,2.384231677489551,-1.1767924523381845,-0.0923304035528461,-2.1189518901752353,-2.5406248181105866,-0.03872552239493119,-0.3658441265458441,-1.034955298334106
5.117767333984375,25.778915163139622,5.957120995953249,2.559445692975155,2.3425345327969818,-1.2287844762880478,-0.09298412900939836,-2.049733999649326,-2.655794838746228,-0.02674496098738984,-0.37640513407572707,-0.5280503764941491
5.137625694274902,25.801923649771553,5.945023131743466,2.558492410620925,2.3134450950573218,-1.2469993253520428,-0.09374627212338985,-2.017221643189175,-2.7656405841622287,-0.015591545716396838,-0.3805288879191342,-0.20618769217035648
5.157729625701904,25.847791679535703,5.919523476206568,2.5566150828641474,2.2734931114483206,-1.3032804297660372,-0.09395115835597483,-1.9766570983544298,-2.8599079026382204,-0.00498781004225732,-0.39681920565910955,-0.8145158869987679
5.177673101425171,25.87012236074748,5.906810039022955,2.5556705807381186,2.245350472753499,-1.3189158798003404,-0.09398053644238226,-1.960494240890918,-2.8880537820952736,0.00473933816562162,-0.3980710756773793,-0.06259350091348814
5.198328971862793,25.914638761654167,5.8798527310807005,2.5537925412268088,2.206370892211373,-1.376875744883322,-0.09379266142536759,-1.9361162824171358,-2.9063076356055637,0.013965480752336614,-0.4150909379599086,-0.8509931141264637
5.217750072479248,25.95804060278528,5.852477723115237,2.5519495967388006,2.1588693007119373,-1.415624818807678,-0.09261014700451004,-2.0277514844739195,-2.7487901398637806,0.02237834804506242,-0.4234582539523215,-0.4183657996206458
5.237622022628784,26.021863933830208,5.808957475578174,2.54920911300494,2.0975177843985757,-1.4948840397124783,-0.09108993868114573,-2.0383895917045916,-2.911801833356486,0.03025580318322263,-0.44481938420543043,-1.0680565126554464
5.25779390335083,26.063406445733587,5.778467537648938,2.5473938683691,2.0567340171410544,-1.5545886454912972,-0.09040974164665737,-2.0382116734016296,-3.055477863324504,0.03769093031274475,-0.45400998060907005,-0.45952982018198085
5.277666091918945,26.08398767652206,5.762835125664279,2.5465072068104133,2.0401985058938172,-1.5836010485510836,-0.08953934139082663,-1.9913418246225678,-3.1052978018479633,0.04432096171396368,-0.4580219929559637,-0.2006006173446817
5.2978315353393555,26.124396785230005,5.730539318069029,2.5447257064193987,2.000887327640829,-1.646106310683915,-0.08858991099344307,-1.938856242048333,-3.1432831486907777,0.050557113267140595,-0.4736314527298884,-0.7804729886962347
5.317738056182861,26.164208771840322,5.697382778034723,2.5430089747629667,1.9671416195236517,-1.6919614083999537,-0.08628495815851694,-1.8439409026079896,-2.2935696014220963,0.055965497689744396,-0.47998484538193376,-0.31766963260226877
5.337632656097412,26.222401350929687,5.6453057960062365,2.540489795757254,1.9131809953999135,-1.7650815276734806,-0.08338220698388839,-1.6799938847371572,-1.557224263353676,0.06074467459639949,-0.4974213606681581,-0.8718257643112182
5.357711553573608,26.260339845665126,5.609739700763391,2.5388346031805007,1.8812111929840951,-1.789213725551946,-0.08212218250798448,-1.5171804683646608,-0.8629277658252104,0.06520524409623726,-0.49845670833926636,-0.051767383555412216
5.377710819244385,26.278987155004565,5.590625389297759,2.5379203589822605,1.8651042974382828,-1.83075787727446,-0.08464727920953316,-1.3023343056747083,-0.6065047021629173,0.0700096884060567,-0.5068062328556593,-0.4174762258196463
5.397695302963257,26.31604279398753,5.553905378478491,2.5362417184986006,1.8411555787217373,-1.8404314867813159,-0.08320189305741942,-1.0935396458482292,-0.36298497490458076,0.07447264462472744,-0.5077150922600144,-0.04544297021775723
5.417688608169556,26.352049886676905,5.513672701085299,2.534095246593305,1.8054739872274244,-1.9313255742766937,-0.09458661560394711,-0.864723346024268,-0.3757446488152283,0.08175316211820552,-0.526458516886604,-0.9371712313294811
5.437662601470947,26.40523272643322,5.45378774965048,2.5309400489314426,1.7633506704620658,-1.9930173717258828,-0.1020084846616836,-0.7572856061344926,-0.5318936843321628,0.09092121202732356,-0.532431586787212,-0.29865349503039873
5.457708835601807,26.440355473622475,5.413811420316071,2.5289186412750992,1.7492840329647683,-2.0050824654962134,-0.10010394090343105,-0.6492914671965097,-0.6719717249333775,0.09942349052832389,-0.5329676518279798,-0.026803252038387626
5.477643013000488,26.47441320963535,5.37238932478431,2.526612309705192,1.7187664001884877,-2.0454010886006033,-0.10550450671199381,-0.4055568309576549,-0.7923939281851899,0.10875848888918377,-0.5422517230024209,-0.4642035587220539
5.497783184051514,26.508723189462664,5.331315520365127,2.52452455767299,1.713011716775244,-2.0623326511200366,-0.10324196725264764,-0.171513998568825,-0.898389610228557,0.11737754844863138,-0.5401426058920675,0.10545585551766656
5.5176966190338135,26.525353079449854,5.310729374325513,2.5234411312170426,1.6983121114497706,-2.068614766410348,-0.10345102030037313,-0.04933927181754527,-0.9421113767152108,0.12519268797909391,-0.5439705577450251,-0.19139759264787948
5.537693500518799,26.575618071635486,5.248584119623255,2.520391025912012,1.678129315405781,-2.089881128583564,-0.09964752776763855,-0.04952596524223981,-1.2546813333128872,0.1320471668319133,-0.5468947319355713,-0.1462087095273068
5.557651519775391,26.608891176507804,5.206749720073844,2.518439554275099,1.6680920882872852,-2.11012069891195,-0.09643578413332073,-0.03780612776424551,-1.573123818260279,0.13790836127472517,-0.5487917538754545,-0.09485109699416405
5.577734470367432,26.642246563894318,5.164213058515365,2.516538782639995,1.6675073207251494,-2.144500205116548,-0.09362372689823127,-0.019608524260899176,-1.8595621464971546,0.1432043412066228,-0.5515659153754071,-0.13870807499762883
5.597710371017456,26.658637831430198,5.143331681045681,2.5156684783003107,1.6595940749743123,-2.1458960523672945,-0.09037809127782989,-0.039430907967383626,-2.0929326365796004,0.14714253608986821,-0.5511692556453611,0.019832986502299477
5.617661476135254,26.70836744873491,5.079122860794607,2.51312694797607,1.6579153868473244,-2.178431558980324,-0.0828856475670746,-0.01719896936356729,-2.3049889828545367,0.14947342789933582,-0.5542396474063338,-0.15351958804863397
5.637782573699951,26.741524099623458,5.035080413834005,2.511499266285302,1.6578437672038582,-2.226432378353525,-0.07987600168945196,0.011017145229504187,-2.490773141967905,0.1514295432113905,-0.5577140904663533,-0.17372215300097693
5.657658815383911,26.774902910905,4.991908489489011,2.510159590708176,1.6651131947590703,-2.2288312782292907,-0.07103901535095222,0.1617719691762695,-2.400682908736545,0.15115102122321752,-0.5541542590562134,0.17799157050699677
5.677748441696167,26.808318300646242,4.947484189346645,2.5088672260861773,1.6722928250098263,-2.2554108734978735,-0.06475464834087977,0.33957186443930815,-2.3096609150656424,0.14967473994279468,-0.556806146869258,-0.13259439065222978
5.6975998878479,26.858616086355568,4.879491892141203,2.507148157207496,1.6841665355227267,-2.303802256300398,-0.05590451757303406,0.669917461906941,-2.1153025609641545,0.14659556043027533,-0.5577518108971447,-0.04728320139433251
5.717740297317505,26.892454535080077,4.833005590391523,2.506059178514854,1.7007204235317874,-2.3441902791057676,-0.05300375933078315,0.982549532705656,-1.924010666441167,0.14347331418685452,-0.5583778519286247,-0.031302051574000345
5.7376439571380615,26.909266188289376,4.809698311908558,2.5056430350689376,1.7046626482918659,-2.357523431993859,-0.04867223333891755,1.164858983803097,-1.9083937513737472,0.1396124226694458,-0.5582757791685853,0.005103638001968669
5.757745265960693,26.943604125897664,4.762167789695569,2.504697256221697,1.7297094782180134,-2.3954379635387597,-0.04591847187029339,1.338371400875833,-1.8811520424591976,0.13576629999882056,-0.5577709887383708,0.025239521510722618
5.777747392654419,26.96033704841063,4.737950198197515,2.504310373116613,1.726924592559722,-2.4183505938164385,-0.042746985478105216,1.5401115770418319,-1.7900184612730807,0.13155440376366037,-0.560201340663292,-0.12151759624605685
5.797670602798462,27.029652742820584,4.639532067996103,2.5028263427887216,1.7665683638941734,-2.4935908887951337,-0.03443476534710603,1.7648054237549762,-1.5105606982086903,0.12608885305308112,-0.5589227606596388,0.0639290001826609
5.8176984786987305,27.065351334730266,4.5893763327982375,2.502162507527102,1.803992219419149,-2.521080098617151,-0.03196653698667984,1.9752284925428871,-1.2397988323436815,0.12075597800671839,-0.5560292887245826,0.144673596752809
5.837815523147583,27.083083688395615,4.5639119575978855,2.501935346881101,1.813003431060749,-2.536360496504659,-0.028374236809860925,2.045615368969105,-0.8853763322148406,0.11510672295956946,-0.55702231506644,-0.049651317092869185
5.857815742492676,27.119757285173268,4.513030532232607,2.501390514946804,1.8545717728132947,-2.5506517221382112,-0.026127250192240225,2.110275418168497,-0.5462762178448722,0.10961861492134421,-0.551176485874949,0.29229145957454516
5.877714395523071,27.137977979398567,4.486794148151668,2.501196604079555,1.864605974633125,-2.573621496323295,-0.023408633827976637,2.20343785544299,-0.17830607787476557,0.10405163225913747,-0.5542501947798022,-0.15368544524265726
5.8980114459991455,27.21389034349575,4.381770156637343,2.500359614162815,1.9437452535788018,-2.6265810046901543,-0.019084214190215554,2.3388582493817336,0.13736521663021717,0.09818866894670239,-0.545046763863267,0.4601715458267597
5.917753458023071,27.25324151034902,4.329286321062154,2.499997186785502,1.991787094403746,-2.620799067883576,-0.017177399129021078,2.463561400968944,0.43841546929735786,0.09252593836132068,-0.5415586198583462,0.17440720024604062
5.937650918960571,27.27315524510488,4.301928830713993,2.4998108298058197,2.0138130137839556,-2.6475670238786044,-0.016831578889028646,2.569618638322718,0.6809691538612075,0.08740573745968892,-0.542310822499442,-0.03761013205478836
5.957777500152588,27.313952054403927,4.249129277908091,2.4994913465982216,2.066191861886049,-2.6316180649519088,-0.015133239168729667,2.6668059951623007,0.9120305142922094,0.08245650284454793,-0.5325624147970442,0.4874203851198855
5.977739334106445,27.334569767699357,4.221590921456504,2.4993672618406415,2.0885980989202935,-2.6570483580252695,-0.011769173959892158,2.739763293095784,1.036270753309118,0.3027078245858857,-0.5362162019616497,-0.18268935823027022
5.9979259967803955,27.420081062925284,4.114496060329602,2.498996910990236,2.192050671071658,-2.6532554592292623,-0.003779928051057921,2.5897582047658925,1.224742159689292,0.2734063616039773,-0.5189327640296013,0.864171896602417
6.017714023590088,27.464430399123586,4.061688017631011,2.498974108849728,2.2424076198511713,-2.6269502746357287,0.0014066016931720575,2.447156762208177,1.40430578028026,0.24547221222275079,-0.5171355946547851,0.08985846874081105
6.037626504898071,27.487166674766964,4.034829239413964,2.4989575827461166,2.2721171642214313,-2.6306202908190928,0.0025184319328977137,2.3446952664705925,1.4839654248817349,0.22039155875658978,-0.5140602451238183,0.15376747654833878
6.0579187870025635,27.53307136260028,3.982518864032239,2.4990504175077413,2.3180257837487126,-2.6001566047228435,0.006685421174223148,2.2469429357495563,1.562158095361291,0.19650423904229747,-0.5057636342977703,0.41483054130240227
6.07770848274231,27.556952746818045,3.955991365865883,2.499135386813347,2.356508289447501,-2.601459352029386,0.008707873269816882,2.111323468260294,1.5378040408128681,0.17478423414332675,-0.5044741824920247,0.06447259028727892
6.098130464553833,27.654131028175282,3.852650934772287,2.499664537334454,2.4707729095397517,-2.551022029612931,0.01646671347780684,2.004603403381047,1.5827158575373679,0.15320577897979032,-0.48423503220769293,1.0119575142165882
6.117711782455444,27.703940646008732,3.801950079762473,2.5000231288879626,2.5098566309493453,-2.5189105769880538,0.019324149274057914,1.9049274926423387,1.6285830557741123,0.13271761992456088,-0.4842704599348262,-0.00177138635666374
6.137588977813721,27.729877904414447,3.776833072674725,2.500224557711912,2.549366870793666,-2.501764594061144,0.020512923694047915,1.8306316335822561,1.7147256083096276,0.114237514848091,-0.4772045644704197,0.3532947732203251
6.157719135284424,27.781226638817113,3.7271463512020584,2.500656480036273,2.585273778311478,-2.4666282421485684,0.022620922571113873,1.760792385009782,1.7985191369732831,0.0967213231734397,-0.4711917714667271,0.3006396501846309
6.177723169326782,27.80791840553322,3.702657833974319,2.500895993819413,2.6238950278554873,-2.4455133780157987,0.023671526456105624,1.7358994973771904,1.849750218140904,0.08091919707682785,-0.4666150177499402,0.22883768583934483
6.1976423263549805,27.860741828758623,3.6541209519846216,2.5013845975785016,2.65836447332935,-2.408002736787893,0.02513902488973625,1.7110531610591464,1.901374476400104,0.06597152155809255,-0.4593417386781309,0.3636639535904651
6.21773099899292,27.915281073954606,3.606485896392148,2.5019254307055787,2.7176053011945576,-2.3656558231259726,0.02696061854206832,1.6877591104106813,1.959120409180539,0.05219713239677715,-0.4500702503239533,0.46357441770887853
6.237647533416748,27.998103421326316,3.5365568469578155,2.502775250350478,2.783242440956933,-2.3010251190737607,0.02891924677792929,1.6826355427323523,2.1054699187196424,0.03911401331126137,-0.4376328462395418,0.6218702042205759
6.25777530670166,28.054104400151445,3.490966855148346,2.503360623987181,2.8168346707913785,-2.2575088460560266,0.029577039120991685,1.676404669230016,2.2450366018555403,0.0267904010118355,-0.4329392248006765,0.2346810719432657
6.277691841125488,28.08276999354645,3.4686767732280988,2.50367578287761,2.8450466570840547,-2.228269392219067,0.030280859521307553,1.6615056225194065,2.475518533886533,0.015704522336998015,-0.42763449323234637,0.2652365784165056
6.297682285308838,28.140002236183786,3.4246211969404423,2.5042838358451323,2.878128047206902,-2.1765636800226806,0.030489739299796446,1.6466375968782299,2.692889963320138,0.0052948880252789935,-0.4187150573304095,0.4459717950968445
6.317766189575195,28.198358245367057,3.3814801549597067,2.5049635843395253,2.9216661472248404,-2.1258908248875885,0.03233467663585587,1.5667739790511124,2.8635527868032264,-0.004455365136979948,-0.4103596187530103,0.41777192886995884
6.337602615356445,28.286969814703784,3.3186940112355092,2.506007101893246,2.974987633667474,-2.0489776618544373,0.034320817692872915,1.439710994638704,2.8068834394611404,-0.0139749275618009,-0.3966339519754687,0.6862833388770806
6.357795000076294,28.34674935672497,3.278271949591655,2.5066901204280208,3.002564169580051,-1.9934244974614128,0.0339514173197152,1.3189892970114503,2.7480865961165715,-0.022860713665815213,-0.39070384667329483,0.296505265108693
6.377766847610474,28.37713031951849,3.2583621899908577,2.5071040103046123,3.0229241199397245,-1.967368924576763,0.03572932714956209,1.176665137193157,2.8979316020025703,-0.031148896327455444,-0.3868160181012854,0.1943914286004711
6.397686004638672,28.43781508148654,3.219603914761766,2.5078118440460075,3.0451065558729042,-1.9079905389956306,0.03502838143259899,1.0430054169341112,3.038352678496697,-0.038848797336958084,-0.37675093911337454,0.5032539493955435
6.4177563190460205,28.499643913429445,3.1821798058596986,2.508541542979269,3.082549300426272,-1.8436283733499945,0.03491705016588757,0.8383973996855202,3.1046803558678677,-0.04568677185869787,-0.36676027024985514,0.49953344317597015
6.43772292137146,28.59307238563592,3.128327387471355,2.5095657684634665,3.1227580211808794,-1.7472883440746627,0.03343010265076236,0.6593427149969386,3.283882716094845,-0.05172609349167455,-0.35095295597558485,0.7903657137135145
6.457722425460815,28.655648110994576,3.0940496766060566,2.5102236471538255,3.1342597432090815,-1.6799297514332028,0.0323392615501928,0.4929059710934365,3.4497850587732937,-0.05727774539097532,-0.34419990207847784,0.33765269485535043
6.477702379226685,28.719330122539017,3.061080429516388,2.510870921963016,3.1660279857404836,-1.6120050250575648,0.03155359420648432,0.4099847727383673,3.5979969099130638,-0.062014084675054065,-0.33209833859100124,0.6050781743738298
6.497789144515991,28.78272748305013,3.0295692185574135,2.5114892966746982,3.173453706351539,-1.5386612818126495,0.030269510829970946,0.33367407397268684,3.7344381126250172,-0.06632410530666621,-0.32274058903880043,0.46788747761004057
6.5177788734436035,28.815021071204644,3.0141617282588284,2.511830954632199,3.1908242812264436,-1.5061942685292893,0.030835407097579856,0.2023743884663287,3.8590880080631935,-0.07021287201151598,-0.31848607304203247,0.212725799838398
6.5376574993133545,28.911305943906303,2.970410301672434,2.5127906669312465,3.2091629223292415,-1.3983514156529397,0.030610711335920138,0.09212421080982158,3.9240869593995993,-0.07389508130381343,-0.2988086160312138,0.9838728505409344
6.557811975479126,28.975500760796002,2.9432320713234925,2.513387875970078,3.2099833873864543,-1.3192783933490575,0.029099201091704874,-0.008493868172559461,3.982057443827963,-0.07719268682462985,-0.28998666138014784,0.4410977325532972
6.577712297439575,29.00794744258188,2.9300800011022914,2.513738855909906,3.2188194452802446,-1.2827317111413605,0.030091304769946908,-0.10044939851274384,4.091390368121712,-0.0802814885613096,-0.2848729051342711,0.25568781229383664
6.597900867462158,29.137126046376387,2.881917044480418,2.5149505991337056,3.226975712803466,-1.1213459192679338,0.02861010901974417,-0.09628180686747395,4.147866422171715,-0.08299761139377713,-0.2541542181867369,1.5359343473767106
6.617687702178955,29.201646625398325,2.8603230316940573,2.5155060379978207,3.225098953746575,-1.0378958527042217,0.02692587135540158,-0.09125298496981715,4.195722148478751,-0.08536957894606269,-0.24517352523878966,0.44903464739736165
6.6377177238464355,29.234027889714504,2.850181645516139,2.5158064448982635,3.2276670485591805,-0.9949239187970973,0.027064882935137334,-0.09075428551716928,4.2065473016948145,-0.08740671312190719,-0.2381408517852801,0.3516336726754776
6.657790899276733,29.298563151480657,2.831124895733623,2.5163301410194303,3.2258633409208723,-0.9107350681044838,0.025298975630486827,-0.08949077985310067,4.211347482011463,-0.0891329238849323,-0.22183139084935233,0.8154730467963889
6.677704572677612,29.330769314076516,2.8222813876583284,2.5166187246424747,3.222531789588138,-0.8669560162896777,0.02553088226796999,-0.18227131487081613,4.208546758761992,-0.09061633256298678,-0.21601150631946586,0.29099422649432327
6.697609901428223,29.42724798942068,2.7982955827438962,2.517372435749528,3.2134024984299683,-0.7368643290253599,0.02357727441536252,-0.2305206212255624,4.206756650502524,-0.09165747697024089,-0.18815563757475706,1.39279343723544
6.717742204666138,29.491466938587003,2.7843993152377697,2.51782559334384,3.208346198306225,-0.6527825304702682,0.021735878395867502,-0.27438845109174237,4.200725875233408,-0.09243959042488535,-0.17358785081211536,0.728389338132085
6.737694501876831,29.55540818021486,2.7724887791536776,2.5182398054190056,3.198250963022069,-0.5611425243841934,0.019724597965917814,-0.3252590257996101,4.1745241319167805,-0.09256444071176316,-0.15377250307203605,0.9907673870039657
6.7577903270721436,29.619304999979423,2.762098947939501,2.51861578646372,3.191277631804091,-0.4779371505005914,0.017873773809743074,-0.37127561885228516,4.145559424124323,-0.09248435701379622,-0.13544218565653665,0.9165158707749699
6.777707099914551,29.651108218400882,2.7577699396624755,2.518762495776483,3.1842687698857843,-0.43165768393351567,0.016131450334138573,-0.45347940249574337,3.877725653080383,-0.09184964961320652,-0.12549347001751876,0.49743578195089455
6.79759407043457,29.74638966257123,2.746989877163756,2.5191587140824927,3.1686447891409966,-0.3069979269801828,0.012007161362459978,-0.5549888457442057,3.3408324176954824,-0.09036115006854652,-0.094077543481621,1.5707963267948966
6.817723035812378,29.80964519348684,2.7414836256774424,2.5193808894393426,3.156596528913547,-0.24532822265861115,0.0102156758415392,-0.6485240863651742,2.830522982380305,-0.08877076275174715,-0.07652719086971427,0.8775176305953369
6.837679862976074,29.87262788794721,2.7385598142878385,2.519356369530523,3.1425916424412628,-0.15444570182852962,0.00256958353734872,-0.7458743026664962,2.361773830310287,-0.0853146796898309,-0.049442886289374766,1.354215229016975
6.857835054397583,29.935324490261994,2.7359131523510443,2.519390927190342,3.12677295005535,-0.11170671751739765,0.0008976035362022951,-0.8345693926971194,1.9158984393555303,-0.08188836958412037,-0.03621163137187544,0.6615627458749662
6.877716541290283,29.96660894423155,2.736475707217853,2.5190802455325785,3.1199612857842927,-0.046504689730815854,-0.009128740373286082,-0.8498218643634139,1.9982258332746623,-0.07617155931411422,-0.016893435766271114,0.9659097802802163
6.89774489402771,30.028837337518862,2.7359503859885503,2.5188828081208774,3.102837084434669,-0.005777004229637067,-0.010596571055843216,-0.8621106901499427,2.0733573061101445,-0.07064259223568592,-0.00633589571437021,0.5278770025950452
6.917698860168457,30.09084497189793,2.7387105283563518,2.518074031246227,3.087610267966644,0.09448171267382703,-0.02632826622617221,-0.9394160845272816,2.110898804390545,-0.0615650188423757,0.022101229963917834,1.4218562839144022
6.937633037567139,30.183042393265396,2.743267273708414,2.51701012384295,3.0581427904305287,0.17946217428322334,-0.03478754281737524,-1.0597347510561277,2.214622184447123,-0.0510490972216871,0.042435290837209205,1.0167030436645685
6.957820653915405,30.24398591462628,2.7473059464385527,2.5163048373269876,3.03585037874874,0.22472358709576912,-0.035707844044892995,-1.167430385012363,2.310171672138349,-0.0410694933245875,0.05181741520608485,0.4691062184437822
6.977758407592773,30.30449196517375,2.7524929626640158,2.515456689779567,3.01305040213105,0.27637312954108284,-0.03912318238346627,-1.2123812618718655,2.4931875532053334,-0.031159265198569305,0.06462815896943619,0.640537188167567
6.997912406921387,30.394404672448605,2.761641849237306,2.5142881622272046,2.9782606691566316,0.3444806650182024,-0.03932944084690141,-1.2398390737226592,2.6466171519764616,-0.021903409038264453,0.08122166055316038,0.8296750791862095
7.017758846282959,30.453720327222733,2.7690703211440817,2.513497784051819,2.9532292041265595,0.398831881234248,-0.03967923434357089,-1.2625224676647273,2.786229386647552,-0.013160521900359321,0.09261848404716089,0.5698411747000254
7.037590265274048,30.483179781271755,2.7728283171391266,2.513159055599327,2.939183904048793,0.41710769850620505,-0.0380104661720947,-1.3803781582820118,2.9105664792055,-0.005759589459410843,0.09525829006624464,0.13199030095418784
7.057709693908691,30.541680047864574,2.781760207565368,2.5123981663484933,2.91048453197329,0.47645155866789135,-0.03805521185471729,-1.487849345502145,3.0216364670753193,0.0012146816193852941,0.11096151700072188,0.7851613467238616
7.077692031860352,30.570697845125334,2.7861399819944315,2.5120937561703074,2.8937177594774544,0.4915947796644985,-0.035773113245439386,-1.6786944344790062,3.0495636118278706,0.006883159534948511,0.11161447411827563,0.032647855877687704
7.097715854644775,30.628224615203894,2.7965833569902316,2.5113800312823304,2.858381359733062,0.5528161975872036,-0.03558162071166466,-1.8520678849521908,3.0716091629425355,0.012209737028600877,0.12853915280060235,0.8462339341163361
7.117705583572388,30.685369961155768,2.8073486919131576,2.510828628349439,2.83034049891994,0.5937329917658584,-0.03120999711180632,-1.921212395047758,3.292602276297048,0.015962736139142855,0.13545465949013913,0.34577533447683884
7.1376283168792725,30.792046735402405,2.83135330516651,2.509855060906082,2.7680356483014608,0.6941913672700799,-0.025310304103313138,-2.173023909610448,3.246357211476776,0.018126946155300718,0.16168429023672948,1.3114815373295174
7.1577348709106445,30.846957337089442,2.84588308280051,2.5093526171650367,2.7222702460261248,0.7586164337460096,-0.024927343042475736,-2.399316967707368,3.195370816757962,0.020145088378630247,0.17193236048137983,0.5124035122325177
7.177757024765015,30.874420597270504,2.8530448173668357,2.509268123381378,2.707534828298197,0.7743650613392837,-0.020057432397984583,-2.535790441344385,3.212607346485127,0.020739889054208753,0.17343926990070546,0.07534547096628152
7.1977598667144775,30.955077074083928,2.8773418265679997,2.5088331283039342,2.648487066801251,0.8613087080121523,-0.01494945052055874,-2.4223326191274324,3.353952948307447,0.020124228383662204,0.19753746177779297,1.2049095938543752
7.2177441120147705,31.007569978056043,2.89524724614446,2.5085381242359706,2.6011858407115307,0.9296400847534463,-0.014552932659705147,-2.307580828566787,3.476011788837101,0.019531304697078016,0.20858040600830252,0.5521472115254777
7.2376134395599365,31.033748090789743,2.904365240780527,2.5085349044438243,2.586160654677243,0.9556896671337625,-0.010383783219136515,-2.210633711381134,3.649099569140441,0.017986253035695236,0.21183800605828695,0.16288000249922163
7.257819652557373,31.085035782383592,2.924219246689845,2.5083307272453017,2.542941078759117,1.030211723055626,-0.0100388064507637,-2.1108635276015653,3.7993492641510325,0.016525275613434386,0.23082414939341866,0.9493071667565856
7.277769327163696,31.110170841721676,2.9341642510946135,2.5083509119113727,2.516509289686849,1.0540783762543973,-0.006501523729710069,-2.0349789707271864,3.9979958931227597,0.014371744589783504,0.23142950863025202,0.030267961841667912
7.297702789306641,31.160099317019675,2.956057358508148,2.5082236186426896,2.4766061999681974,1.1358080085066564,-0.006234554569127145,-1.95459379338342,4.170700239676768,0.012346265912742932,0.2524529226627541,1.0511707016251037
7.317721128463745,31.20847688758379,2.978387328977215,2.5082713611354364,2.4186125666570946,1.1896615254209566,-0.0017462422301373509,-1.8783974898563844,4.336897188863261,0.009460937889638569,0.26110094037056486,0.4324008853905381
7.33764386177063,31.279635638691232,3.015170725248646,2.50834338404831,2.3471019488178593,1.296294646774672,0.001968762397807034,-1.804778075749333,4.441118488795316,0.005932067571160006,0.28676698510643783,1.2833022367936486
7.35775351524353,31.32622186399722,3.041990750060858,2.508383721932519,2.3117814979215865,1.3859861743909558,0.002054026016133896,-1.7265061433743878,4.524629932589957,0.00263197582157283,0.2971902239585966,0.5211619426079395
7.3776915073394775,31.348759283409986,3.055371764760587,2.5085276244017485,2.2811297362194645,1.4121155312717628,0.005535689552259253,-1.6540616016607552,4.598689707211754,-0.001134888705402301,0.3011842123353383,0.19969941883708486
7.39780855178833,31.39405611782648,3.0845377664578733,2.508637872948722,2.2488099345470016,1.5046661472844356,0.005477463302408173,-1.5771956664536764,4.6531515512851165,-0.0046455432456398655,0.3201167327496717,0.9466260207166677
7.4177422523498535,31.437906620130896,3.1146546546506415,2.5088994946535363,2.197899418669329,1.5710506421339692,0.009047850289130839,-1.4639368329741353,4.090421092680599,-0.00863873909865127,0.32923241257366076,0.45578399119945434
7.437614679336548,31.502620690454304,3.163617394296764,2.5092252638949546,2.1393661712066083,1.6946013091737382,0.010295029291521795,-1.272767940268551,4.0151643005303335,-0.012618956680672555,0.3527461984743461,1.1756892950342657
7.457835674285889,31.5451659910351,3.198307024005814,2.509428389934013,2.115786877407541,1.77408345178606,0.010005276778243139,-1.0858701524711392,3.931705890138033,-0.01630842524399779,0.35674461548446246,0.1999208505058192
7.477693557739258,31.565667075142017,3.2166446540033866,2.5094580262196597,2.0891322328448507,1.8258787728718067,0.007547263584330687,-0.9050837427787537,4.0343307993114115,-0.01889701190848121,0.36606530009815064,0.46603423068440897
7.497943162918091,31.647280560816306,3.293516075614416,2.5095059643630266,2.0250485158125664,2.003731084495434,0.0007884239076446158,-0.6021147053755409,4.280847247685878,-0.019570284150862524,0.39429598195175153,1.4115340926800446
7.517706394195557,31.687680621679508,3.3344614251748625,2.509517778711291,2.015921963110738,2.091501008404103,0.0003910861990437657,-0.31279240055978585,4.49000567845783,-0.020147745530074063,0.3919685069345844,-0.11637375085835622
7.537682056427002,31.707043941037757,3.355637384503858,2.5094165089308067,1.9923247289542225,2.136230267501822,-0.002568356211981976,-0.08459841073186243,4.4256770569484996,-0.019844909024922804,0.4016267516530885,0.4829122359252036
7.5577392578125,31.746888218966358,3.3992421261260146,2.5093611947673717,1.9928298118771606,2.22398231145093,-0.0029619343964233658,0.1334293914608911,4.347209870013638,-0.019507210858481953,0.40628095476850845,0.23271015577099874
7.577663898468018,31.785153055462914,3.44421093819382,2.5092857192660465,1.957132080914714,2.302122672006531,-0.0035691693115272485,0.37686240544576594,4.336312962273363,-0.018989321963536095,0.4167387085307328,0.5228876881112177
7.597684144973755,31.8243866439346,3.491119040365016,2.509210573530419,1.966994714740737,2.3885923146954,-0.003943612469898986,0.6072519241039442,4.307752932978974,-0.0184518038660748,0.41849855225779065,0.08799218635289208
7.6178672313690186,31.843075525682508,3.515197904865245,2.5091366029587694,1.9465521718834184,2.4298606720178655,-0.005193031263230051,0.8531600834351585,4.121662694189876,-0.01760241584772867,0.42400217441195664,0.27518110770829995
7.6377198696136475,31.900769786146743,3.59020034443248,2.5088927217945387,1.943348816985201,2.558348700154799,-0.008072591209632439,1.0930950913188995,3.7562799411322048,-0.01606739787533891,0.43274218797679564,0.43700067824195
7.657743215560913,31.93987065865703,3.642094617424125,2.5087281563195725,1.9674904705676517,2.6298874140547075,-0.008379006304211654,1.3187115984107523,3.398923285359294,-0.014582392058654638,0.4305214863172826,-0.11103508297565234
7.677680253982544,31.978056573225604,3.6963595055978695,2.5083523816370006,1.960370131869804,2.7213077353816235,-0.014070661727192435,1.5580252174919391,3.030816920933671,-0.011737077023343737,0.43976947326385973,0.4623993473288568
7.6977503299713135,32.01759075115685,3.751367821733341,2.5080688036145133,1.9937932800079439,2.7783326826117167,-0.014278125522468413,1.7817170624771999,2.6734556555172344,-0.009032530639537815,0.43430804406988033,-0.2730714596989703
7.717708110809326,32.03673049469692,3.7803444375162267,2.507716451261999,1.9868838778032416,2.833500670362027,-0.020403765335570898,1.8144650337856318,2.44303844484412,-0.005025124910023375,0.44228534798752817,0.3988651958823919
7.737616539001465,32.096321695464844,3.86779522310696,2.506873163315786,2.0186809841969113,2.9436378957050704,-0.02702164267611874,1.8590916785841696,2.288279010642055,0.000421887257578833,0.44117059079027365,-0.055737859862725614
7.757912874221802,32.13706997776924,3.927115387059813,2.506333161520689,2.0562873045069514,2.9878671544727884,-0.026961473639008467,1.9011100376139796,2.134876109318353,0.0055409667985274295,0.4395284096910075,-0.08210905496330856
7.7777018547058105,32.157262449408115,3.9581735853676068,2.5058694652212474,2.062852850309458,3.0380143017453634,-0.03229141507877934,1.9165247471619076,1.9930780170702145,0.011474847981498287,0.44300713903485933,0.17393646719259248
7.797764301300049,32.19890378511087,4.0193230684597445,2.505226308437516,2.1013285184995376,3.0764636825983107,-0.03200574928706076,1.930864649843442,1.851981447834774,0.01702919388860985,0.43843046490278015,-0.22883370660395919
7.817723989486694,32.241109247519056,4.082580122932192,2.5043808124818088,2.136301257898618,3.1450662327141314,-0.03662459937772609,1.9758553078910919,1.6760472278993166,0.02324764445993576,0.4407168645679236,0.11431998325717174
7.837713956832886,32.30619966701648,4.1783780394079395,2.5032067129164544,2.1992533567036743,3.2133262495827593,-0.03826260051556577,2.00478706867087,1.488853788431377,0.02953795622074861,0.4355797974707265,-0.25685335485985394
7.857748746871948,32.35058749768561,4.24293006770087,2.502447765848109,2.2396179987548965,3.241266726857467,-0.03761260074361367,2.0312745992079204,1.3058973876829674,0.03538980026558645,0.4346472458552544,-0.04662758077360607
7.877812147140503,32.39610523480985,4.308919013002511,2.501626289783082,2.288343164498181,3.2885755016638734,-0.0386663199147719,2.0219091290044586,1.1387839990025335,0.04095286914168149,0.43213640419038946,-0.12554208324324634
7.8975830078125,32.465943140121375,4.408654332784367,2.5004597368772905,2.3564652283152956,3.337683691176729,-0.03807288757024137,1.941556951511699,1.019049289972463,0.0461016691783308,0.4279276578893203,-0.21043731505345775
7.917721271514893,32.51345560499728,4.475603716685155,2.499707822585246,2.3945271005310516,3.356847814485597,-0.03710271631273887,1.8653081202258277,0.896986211454514,0.05084942793013743,0.42619966791628006,-0.08639949865201224
7.937646389007568,32.53790388558539,4.509596677843623,2.499328061568571,2.4244409111241403,3.3752971186013614,-0.036868634679153876,1.7741107924495494,0.7889997444110425,0.05498818580028738,0.4249090076035533,-0.06453301563633662
7.9578635692596436,32.58674169962277,4.577253058596355,2.4986019445955776,2.4590533561355707,3.3899702449877727,-0.035730451580631234,1.6879682674166947,0.677788923519141,0.05877164515061113,0.4216471258129122,-0.1630940895320565
7.977780818939209,32.61204511377473,4.6114620106632715,2.4982353320850446,2.493270499108566,3.4035425276208477,-0.035461892950439236,1.5872882246571831,0.6056936380657895,0.06203950178004538,0.4204909585355425,-0.057808363868483426
7.997974872589111,32.66222156766811,4.679648902502524,2.4975387041679924,2.5240591209248406,3.414887036800901,-0.03419105653459403,1.4925554972383934,0.5278115313229507,0.06499230218572011,0.4175637115743771,-0.14636234805827097
8.017739057540894,32.71423660511724,4.748282179972434,2.496848603587314,2.5843997207335034,3.430466556727794,-0.03333385440451466,1.4129773448742053,0.5187508763286052,0.06745642304389085,0.41291437884735327,-0.2324666363511918
8.037626028060913,32.793234699658136,4.8513868484276905,2.4958757224533286,2.6498599166229266,3.444830580286511,-0.03135994862606395,1.3508526711730928,0.568083756766856,0.06942942735499916,0.4081307939061869,-0.23917924705831872
8.057780027389526,32.846498122649905,4.920399625223968,2.495262528273683,2.676288318711852,3.4565623852187066,-0.02995373126524996,1.2926323328044471,0.6026768727195551,0.07115096237936482,0.4074647648458387,-0.033301453017409166
8.077687740325928,32.87405869614631,4.954739807349949,2.494979763005483,2.7096022719039308,3.4552738383140342,-0.02881393514048139,1.2546202437574034,0.6522893810150057,0.07234858975136794,0.40411048715667697,-0.16771388445808721
8.097596168518066,32.984434547201275,5.092714123974343,2.4939350600785,2.783279927077639,3.46188157629564,-0.024600650015246674,1.179327146859568,0.6532690951971298,0.07264844210390449,0.39669783975631256,-0.37063237001822014
8.11767315864563,33.04033128794012,5.16208188708002,2.493457588914162,2.8061628613672105,3.4748590011537233,-0.02314598756992507,1.109939272376174,0.6425553302481258,0.07279217521654754,0.39790204388458905,0.06021020641382435
8.137651681900024,33.068968898675685,5.19626922637794,2.493275954253188,2.831487094486178,3.463458420676383,-0.021098226069956323,1.048866660549293,0.5385609227974878,0.07234885896520739,0.3936234367543552,-0.21393035651169345
8.157710552215576,33.125804572942435,5.265638987394511,2.4928684244017267,2.851892081646351,3.4731586711613445,-0.019656604919916956,0.9923898655253732,0.43086084277953685,0.07179516728127996,0.3931506085026446,-0.023641412585528876
8.177848100662231,33.154894459806236,5.299877316667447,2.492719736323708,2.8761834495992513,3.461278155320188,-0.017692396430290802,0.9490341677124905,0.21778887945722297,0.07075179873394698,0.38984837222739444,-0.1651118137625085
8.19782280921936,33.212605201485864,5.369132483270724,2.4923799656168377,2.894756587389336,3.463544945392667,-0.01628838953502157,0.908793882494388,0.00972023997156509,0.06963726171253488,0.38849364999282354,-0.06773611172854466
8.217747449874878,33.27140382153271,5.438178948012996,2.4921273104748187,2.9298825061476617,3.45723737986181,-0.013449918705296321,0.8251066444935058,-0.2554403892877046,0.06791351851154498,0.3843149014315923,-0.2089374280615619
8.237766742706299,33.330161230728265,5.507255414583471,2.4918717786313,2.9456005172231152,3.4495576278358633,-0.012109094457545932,0.7477354517305693,-0.5109379186242402,0.06616490376660138,0.38322068250449703,-0.05471094635476348
8.25775671005249,33.389805810353415,5.57656118732314,2.4916988995398355,2.9739661896678533,3.4495140382293474,-0.009398319492966767,0.6245737751959519,-0.6837106857130424,0.06389913139039984,0.37970512661337485,-0.17577779455610898
8.277788400650024,33.44940229090675,5.645403426190618,2.491523562674268,2.9853014208647153,3.4341484802223303,-0.00814286931872748,0.5104370432243766,-0.8521219199396295,0.06164846758146082,0.37807700817020296,-0.08140592215859499
8.297927618026733,33.50978740769113,5.714676796745234,2.4914328753715527,3.00778983762141,3.4355654813958303,-0.005428302357375863,0.23364584071711497,-0.9251088854216836,0.05892523983125984,0.3754676308119147,-0.1304688679144128
8.317815780639648,33.60064880466275,5.817735822404789,2.49133843627467,3.029127349881427,3.4186349322717016,-0.0024899289307731554,0.11827527426927903,-0.9734274658414026,0.05577536231830024,0.37159777113066683,-0.19349298406239335
8.337682008743286,33.69211983729609,5.92003434055227,2.4913255256866544,3.0472290070622647,3.3943190614805694,0.00019626788386465876,0.013382794752804222,-0.9437384899372856,0.05228355633757316,0.36808140384219934,-0.17581836442337462
8.358000993728638,33.75306046325024,5.987733252485589,2.4913396805378443,3.046508014494933,3.3756245716482622,0.0012079484420414776,-0.08429193054126709,-0.9279993232227008,0.048902892250699645,0.36694328849230873,-0.05690576749453058
8.37772536277771,33.783962535403425,6.021372459631344,2.4913913145131286,3.057652286993851,3.3627399122774393,0.002737138693776581,-0.12153938383736629,-1.0688958546571083,0.04546016558936309,0.36508173023630697,-0.09307791280008804
8.39782166481018,33.8450889805246,6.088404086494811,2.4914549258144083,3.0548807210920943,3.3399532148774123,0.0036129154423391384,-0.15499205558528562,-1.2097622975662334,0.04213733697508357,0.3632107221615519,-0.09355040373775214
8.417783498764038,33.87597675617102,6.121594611402467,2.491541693108661,3.062243820181058,3.322581102032627,0.0054221258770381425,-0.21972946969937426,-1.3493325651964632,0.03867618962600003,0.36142651531106473,-0.08921034252435955
8.437623023986816,33.998545881543635,6.253564162753586,2.4918978499340163,3.0571892269745384,3.2721216014549066,0.009708895766591922,-0.45897871460695355,-1.3946674346060646,0.03441730385856398,0.35594320032268545,-0.2741657494189642
8.457738399505615,34.0595827999504,6.3187243145219565,2.49209863696739,3.0457635612933047,3.2437209408880765,0.010356248461653336,-0.680701358419705,-1.4464537622728904,0.030349510321197384,0.3559452664129532,0.00010330451338802504
8.477784872055054,34.0901498197152,6.351137475875064,2.492286358771715,3.042165075378946,3.2269587691675015,0.012982804212594882,-0.8147102601803621,-1.874721347451322,0.026024531896383832,0.35441825041804664,-0.07635079974532832
8.497764587402344,34.150821867758644,6.415274201454527,2.492550941985387,3.024634392104307,3.1853557511492974,0.013461802271543005,-0.9363164127855782,-2.2821394117915705,0.021909996763973576,0.3517988627607993,-0.13096938286236703
8.517754077911377,34.21179233342462,6.47904804424889,2.4929609809352953,3.0217272934056667,3.154537634817866,0.01735870639112179,-1.0446705193263004,-2.3118523606774386,0.017186860559114878,0.3496445144178697,-0.10771741714648009
8.53782868385315,34.272011249499684,6.541674125608705,2.4933112902002095,2.99983821029381,3.107950235362685,0.01765731657512335,-1.1425059089087246,-2.347928113155846,0.012715714700239142,0.3475773437348031,-0.10335853415333052
8.557811975479126,34.302349344438845,6.573236679552141,2.493611464649115,2.998485577709879,3.100648873890757,0.02128931761367959,-1.2568110061613802,-2.4070155491267458,0.007786282439632248,0.3473936657810168,-0.00918389768931327
8.577721357345581,34.392082213580956,6.6655707325562705,2.49438041656497,2.9699064174380854,3.04018007755102,0.025062547989056314,-1.3055384425214667,-2.2970608701650344,0.0022301758093611983,0.3429209664041388,-0.22363496884389988
8.59762954711914,34.480760326170426,6.755785237257823,2.4952346309895854,2.9351674192064734,2.9720376662168784,0.027895724823307107,-1.3094708378405704,-2.254568973197336,-0.003679054613918795,0.3405172570026753,-0.12018547007317526
8.617709875106812,34.53920177101331,6.814777716629555,2.4957914341383263,2.9089807511605326,2.9273390943872895,0.027766116249301687,-1.3083671146978693,-2.2159202454119136,-0.00922133278101623,0.3387135367336409,-0.09018601345172073
8.637649297714233,34.56821774409106,6.843699604480935,2.4961282110045357,2.894772882068592,2.897835594920717,0.029254124587579228,-1.3784700899384468,-2.2335007733000873,-0.014536181182574093,0.3378889655191917,-0.041228560722461616
8.65779423713684,34.625833304346116,6.901208476495498,2.4967100495074774,2.8665807065279356,2.852995155886128,0.028913177193143295,-1.4392049266839646,-2.250436062576377,-0.019500869446632405,0.33540053345724496,-0.12442160309733552
8.677701711654663,34.68274917476761,6.957315610041879,2.497342509503278,2.8340388171769875,2.7960503386113746,0.029928520657258543,-1.5138121387819468,-2.2049535405917626,-0.02425105900454378,0.33334871916371833,-0.10259071467633163
8.697776317596436,34.73912272660243,7.012798464815449,2.497935929783907,2.8031016743883117,2.752373897037392,0.029398787044648156,-1.578223917223938,-2.1633243564101536,-0.028667298196179896,0.33180876249670943,-0.07699783335044508
8.717760801315308,34.76702520651862,7.039938080292704,2.4982716774387783,2.785241069034785,2.7234258475144797,0.030313424087487852,-1.6605788159705155,-2.09685739617728,-0.03282209647839939,0.33116580342499713,-0.03214795358561506
8.737616777420044,34.849866271847176,7.120357041720036,2.4992066229146834,2.7360743443482898,2.6510699930813666,0.030410425792748597,-1.6910825190422922,-2.0495284734274692,-0.036816666329825276,0.32747416921573125,-0.18458171046329408
8.757707357406616,34.904247916020026,7.172971470602402,2.4998072174524157,2.7020154532722853,2.610516010625021,0.02963675322650743,-1.7134719697364422,-2.006591835676215,-0.04049921879784562,0.3273323283499163,-0.007092043290746197
8.777703285217285,34.957924239471595,7.224174697830821,2.5004101823892237,2.667362856179698,2.5552271244613554,0.029135115259203693,-1.6602350509976356,-1.980429392503359,-0.04370775022527427,0.3242534240493793,-0.15394521502685166
8.798128843307495,35.037054359950474,7.299509573277839,2.5012430506383154,2.613833743866698,2.483149392653889,0.02713441706116893,-1.5731108437134584,-2.0336764821817295,-0.046308507634172734,0.3221353640688487,-0.10590299902653033
8.81770634651184,35.08902225506924,7.34876243199497,2.501776316199967,2.5832484380008958,2.4419693564960228,0.026184287408334502,-1.485310542976422,-2.0838143321657925,-0.04866412037088807,0.3207180058899741,-0.07086790894372808
8.83768105506897,35.11448566801954,7.372757474652467,2.501994563644848,2.5604889467188285,2.4120866932148406,0.024489044048112196,-1.3916468735342942,-2.1084448662578064,-0.05030173040241926,0.32028087265950145,-0.021856661523633747
8.857723712921143,35.16542334620131,7.420575955505342,2.5024741847033973,2.533590036223523,2.3696844751349273,0.023468247241157276,-1.298297659035341,-2.1315204870961058,-0.051746185667952777,0.31745240006327213,-0.14142362981146572
8.877716541290283,35.19021018192125,7.44403257527596,2.502663954924647,2.507504137729123,2.3446053775807,0.021736634436828342,-1.1981042390265344,-2.1504472519737434,-0.05256243337313488,0.31858608739427163,0.056684366549974996
8.89760422706604,35.26429298769702,7.5133692596101,2.503251823975752,2.4551095346837455,2.2789293043087717,0.01899544701075711,-1.1023672958476185,-2.185358691455282,-0.052767843197863276,0.314737485268219,-0.19243010630263235
8.917713403701782,35.31318103625403,7.5585085993209455,2.503621171188578,2.434011037608999,2.234898447306087,0.017938957053486245,-1.007652217707883,-2.217225762007983,-0.05286306394599691,0.312732436937341,-0.10025241654390005
8.937730550765991,35.36078019697469,7.602771153957616,2.5039028697294485,2.3922657952120927,2.1907749470989084,0.015216167572242137,-0.9634939933774348,-2.230174004818769,-0.05226941339030316,0.312320192512499,-0.02061222124210005
8.957764148712158,35.40843588021918,7.646139827517835,2.5041967818210824,2.3734578386510545,2.1460540741015506,0.014177222486178422,-0.9169024351991637,-2.241675040577362,-0.05161518150083167,0.3081187428335541,-0.21007248394724343
8.977755069732666,35.43158872554792,7.667522982523851,2.5042920593052878,2.3484995230843584,2.1258007626284914,0.012421903326023389,-1.0048355644490639,-2.0959615896001753,-0.050555694584774574,0.31035981217805375,0.11205346722498177
8.997636795043945,35.50120231586054,7.7302935740102585,2.504602526300039,2.3072202654297382,2.061369540249806,0.009800193547497055,-1.0687292218319038,-2.031403696350293,-0.0490342224159001,0.3046007346179822,-0.2879538780035773
9.017721176147461,35.547129197519006,7.771118781500665,2.5047888246792533,2.2852869272783405,2.0213526852469736,0.008834710348569972,-1.1230252090246378,-1.9709591105546653,-0.04751444264653665,0.3038589147926496,-0.037090991266630624
9.03771424293518,35.592395731445166,7.810888419972044,2.5048950199615443,2.257842750191632,1.97539902488603,0.00638432282241466,-1.1786527586518636,-1.931181764075663,-0.04553023066302179,0.30072753764226867,-0.15656885751904603
9.05784821510315,35.637313621067086,7.850012695758334,2.505013730846645,2.23379225402546,1.93715316067849,0.005493259356717233,-1.2248441476701062,-1.8937986791973735,-0.043582128856452636,0.29901288052936836,-0.08573285564501543
9.077814102172852,35.65965055790404,7.869082858551692,2.505032347350924,2.2233725046823607,1.9130024709547877,0.004120605628292532,-1.2321253945523587,-1.8205906610581697,-0.041470138422246665,0.29767402632466444,-0.06694271023519605
9.09782361984253,35.747805815537745,7.943829370473335,2.5051276713465263,2.1790680724303715,1.8327418887834392,0.001611700771853114,-1.2379622596421975,-1.7864134772435982,-0.03897606493333994,0.2908738189657534,-0.3400103679455535
9.117719173431396,35.79113951899189,7.980129129794656,2.505152272469916,2.154304308402285,1.7973430324210018,0.0008564622884222712,-1.2373545313881753,-1.7537162402655047,-0.036560829885147104,0.2912360244229859,0.018110272861626697
9.137685537338257,35.83411728282576,8.01552500856209,2.505134972538028,2.1327549127946868,1.7572526134722697,-0.000524865417037385,-1.2548096265050785,-1.7737351064357783,-0.03403614125955252,0.28723892857916766,-0.19985479219091218
9.157792091369629,35.87652063356464,8.050314099403618,2.5051178318423886,2.1075470894977952,1.7215977242703457,-0.001181085968071356,-1.264734465903555,-1.7913600789755075,-0.03160066392921915,0.2860964087924005,-0.057125989338357996
9.177826404571533,35.87655958622127,8.05026841466892,2.505110713733908,2.1083976201152335,1.7197593803710665,-0.0013802459470122024,-1.3168701678884271,-1.8285995807517654,-0.02935849658260485,0.2866214916944618,0.02625414510306623
9.198005676269531,35.91846117641807,8.084295579798734,2.5050773826057346,2.081619999881852,1.6828449642169832,-0.0019456582426939286,-1.3592942763546931,-1.8622515934401116,-0.027195887204723917,0.28352873491802466,-0.15463783882185833
9.21772027015686,35.96003354306528,8.117632893660364,2.5050272263813964,2.0589888598502935,1.6448045477593367,-0.00255013128050258,-1.488882469317923,-2.1663341805099914,-0.025087915842552395,0.28109283462979207,-0.12179501441162977
9.23765754699707,36.02140369348519,8.166304042189537,2.5049559998101043,2.0204122051863207,1.5867878736053171,-0.0027673178117388775,-1.723272546701986,-2.4588013265099913,-0.023120830014303845,0.2769754788310883,-0.20586778993518795
9.257827281951904,36.061452753232544,8.197529663907781,2.504896156751481,1.9837852983887367,1.5348739771227562,-0.003210675566194879,-1.9358228266029112,-2.728906728146889,-0.021227064512526476,0.27463259539750107,-0.11714417167936197
9.277685642242432,36.08164242563056,8.213351032343429,2.504919048788785,1.9760184455786511,1.5233898194151698,-0.0016960331367197171,-2.1262602296328175,-2.9802915668934,-0.019903699758345696,0.27444745713540986,-0.00925691310456056
9.297622919082642,36.14075302828426,8.258771873242974,2.5049706852495097,1.9331422964699676,1.4626452322957468,0.0010096997197031235,-2.3341459096982926,-3.2033808359934945,-0.01939374258629011,0.2688577131960006,-0.27948719697046265
9.31777811050415,36.17893628614681,8.287370266246212,2.504987035084173,1.8845636260035261,1.3965193329020449,0.0006270227339469384,-2.5201142438207422,-3.4058102679892057,-0.01887205765412579,0.26540130483053836,-0.1728204182731119
9.3377046585083,36.217390618477204,8.316269050138919,2.5052414684723914,1.8656521107525097,1.371024562787774,0.006499395601071512,-2.5649091882077526,-3.232150154893813,-0.019887528366866844,0.26452750286062443,-0.043690098495696716
9.358092784881592,36.254188334816156,8.34305436181574,2.505367416645014,1.8140128621173672,1.3080637320930812,0.006092399703663561,-2.5969133982516492,-3.065010096563288,-0.020794163996524048,0.2596908443195969,-0.2418329270513775
9.377854347229004,36.27294099872195,8.356727530937876,2.5056009777241557,1.8079125173473203,1.2961917840183301,0.010733987397193728,-2.694665810266513,-3.234350228550647,-0.022750339410997397,0.26016654985686083,0.023785276863197424
9.397719383239746,36.343929559327435,8.40639342766162,2.5061512764217686,1.7203771861152914,1.1787406997343823,0.013015807618326882,-2.6519851974166238,-2.9699882300207374,-0.025210068360585952,0.24732139100909212,-0.6422579423884356
9.417701244354248,36.37780989671324,8.429391209773588,2.5064063971435853,1.6678217416617078,1.121874953455817,0.012488767343182727,-2.602432089721176,-2.718751072187801,-0.027459323009894374,0.24801273412896485,0.03456715599363669
9.43761658668518,36.39463680164122,8.440449285103588,2.5065660420950597,1.6496392320145854,1.0945540639998168,0.013111271243252516,-2.567290781973179,-2.5804955839988226,-0.02957229146548826,0.24422734261570023,-0.18926957566323122
9.457735061645508,36.42711883310773,8.461833237255856,2.506822222090254,1.5987050978976662,1.0442855710852708,0.012500342241579705,-2.524939511746206,-2.44716826581613,-0.031488186522293314,0.241449035099357,-0.1389153758171613
9.477792978286743,36.44305693301089,8.47171182786784,2.506921223842263,1.5770664545406978,1.0084036898203235,0.011374107526533651,-2.3254986798369304,-2.2923285075912045,-0.03285605683269227,0.23736969511555417,-0.2039669991901416
9.497602939605713,36.48916288455698,8.500337609259779,2.507188034933084,1.5038610251775595,0.9239946867243227,0.008617210340848279,-2.12293726101425,-2.124328291469261,-0.03347321502200477,0.2287659072644841,-0.43018939255350386
9.517658472061157,36.51882877298622,8.51840345343398,2.5073536489397985,1.4633864728492114,0.8831242062474792,0.007942504108676236,-1.9253395965983418,-1.9639831326734267,-0.033979134873329514,0.22770803983832089,-0.0528933713081603
9.537722826004028,36.5329913409413,8.526555465261028,2.5073262504062748,1.4351916652262389,0.8485159374632169,0.004474153285857204,-1.6663555549377123,-1.773193138035368,-0.03349620296294488,0.22317148182180002,-0.2268279008260432
9.55781078338623,36.56137869290732,8.54318336041387,2.5074090685676014,1.4043751739885921,0.814876022286483,0.0038094145779629077,-1.4168597296157288,-1.5924562726462863,-0.03297071090174986,0.22013555291201747,-0.1517964454891274
9.57776927947998,36.58793686798375,8.557997665261347,2.5072142197982052,1.3465410714590293,0.7550837171200089,-0.003685710087594389,-1.0823323734445467,-1.408839807569119,-0.030549153009784617,0.2130211818272807,-0.35571855423683907
9.597665548324585,36.62672460812051,8.57917257240548,2.5068571982694374,1.2833081577684813,0.6894497185895527,-0.011290089435856772,-0.8907841818928659,-1.3248204649867013,-0.026406868976800175,0.20552707466179543,-0.3747053582742632
9.617733240127563,36.652225056460885,8.592702079359402,2.506626381221486,1.267353369935905,0.6637727463856572,-0.011778475074814337,-0.705774032950254,-1.2432891317269161,-0.02246471702328623,0.20233742860145032,-0.1594823030172554
9.637670040130615,36.675750417103416,8.604651894714005,2.5060004561981537,1.212512360232901,0.6132950402508873,-0.02174305132260813,-0.5788885417059497,-1.1610107650079444,-0.016344362988609928,0.195437882352969,-0.34497731242406626
9.65771746635437,36.699893209054686,8.61669096139839,2.5055627171014714,1.2021806997875677,0.5908780860127258,-0.02201160181287954,-0.4547284096934821,-1.081073078893395,-0.01056727952193468,0.1913620085837322,-0.20379368846183965
9.677650213241577,36.71094033836439,8.622020174978667,2.5051378039027057,1.173290462042031,0.5655130558107033,-0.02776400257561832,-0.17111633870685522,-1.072702445579478,-0.003944244419917651,0.18871680188089623,-0.13226033514179836
9.697708368301392,36.756328453085324,8.643221678722753,2.503815778683543,1.1341161709902785,0.5095634690810165,-0.03281787914023734,0.10581277759473023,-1.0618554256934651,0.003589281068533028,0.1736729507786965,-0.7521925551099873
9.717688798904419,36.77904975212679,8.653201442656373,2.5031606175745433,1.1388936928049582,0.48845852440452214,-0.03267468957183571,0.36980502572607366,-1.0481774325630981,0.010652115010460874,0.16932117075380537,-0.21758900124455582
9.737682819366455,36.78964723956755,8.657874954839869,2.5027577804175576,1.120591465219458,0.47225706008247115,-0.03461652344405102,0.4984326559911071,-1.2284114019127093,0.017424305835807924,0.16745974102116,-0.09307148663226794
9.75770878791809,36.812167133580694,8.667063332801947,2.5020693637646683,1.1318135896230117,0.44604202566080464,-0.034204064710035016,0.6231297205886626,-1.3900331747071384,0.02374761920227811,0.15375223301773744,-0.6853754001711287
9.77763557434082,36.82257302711868,8.671541483220292,2.501688804899764,1.1139823249034455,0.43583337170187997,-0.03494395965472881,0.9178182982580525,-1.3127349367667411,0.029549593369596713,0.15786821956510222,0.20579932736823903
9.797680616378784,36.86649037003658,8.688464381662602,2.500341279992529,1.1192793330020172,0.39762942438220045,-0.032838559685568654,1.1805040615290145,-1.194362774373662,0.03458575524025905,0.1367216527471009,-1.0573283409000656
9.817731618881226,36.88912887752577,8.69618574662144,2.4996917428998673,1.1454010106317394,0.3748855112727968,-0.032099611157174975,1.4293872754209143,-1.0808297873460675,0.039247431983664156,0.12890619762542377,-0.390772756083857
9.837758541107178,36.888788211550214,8.69635388557261,2.4997262701314718,1.1381005415953498,0.3818606676260971,-0.030875044701322227,1.7721165700518602,-0.9643370609673333,0.04297687899160904,0.13684978719183727,0.397179478320675
9.857840299606323,36.91192646454964,8.703805736369292,2.4991175977741897,1.1767987462056915,0.3636953329000475,-0.029980787273226592,2.094320414124154,-0.8530595988583167,0.04639813180709347,0.11855220445678238,-0.9148791367527442
9.877675533294678,36.93433958072889,8.710804788776842,2.4986443758385435,1.1824141233802885,0.3440185310238462,-0.02601086564567606,2.421229322658361,-0.7562453838043836,0.04847910357979814,0.11474408069392128,-0.1904061881430552
9.898205280303955,36.98192898067705,8.723615179016022,2.4978207779408415,1.2408287101255304,0.3052527999986406,-0.019415521677671046,2.6353789691195217,-0.7624232835800208,0.048930555554701695,0.08907129670290637,-1.2836391995507457
9.917711734771729,37.00728616775733,8.729567524417085,2.497442277849614,1.2955546839505463,0.2899734754696173,-0.018433372078301785,2.834790465556541,-0.764905056634042,0.04926522194464042,0.08376444843107844,-0.2653424135913962
9.937612771987915,37.01964888314487,8.732361156847094,2.4974235647968483,1.305598785809624,0.28150411063368214,-0.013229544740626523,3.0837157243226683,-0.6753251262514695,0.04821165966885726,0.08050711458631099,-0.16286669223837258
9.957839965820312,37.04639327573429,8.737861949151316,2.4971685448879324,1.3696090049783376,0.2688606148077903,-0.01227603136155093,3.3142824867566167,-0.5896758827506072,0.04713611691248581,0.06901920100228143,-0.5743956792014782
9.977735757827759,37.05959207531317,8.740585603878372,2.49724207646671,1.3862743333694025,0.26753452152086415,-0.00623338932501492,3.5446273117779343,-0.269555492462681,0.04461729128515958,0.07075899928663265,0.08698991421756119
9.997621297836304,37.10211385850765,8.748318926130164,2.497288774785728,1.4743944067334078,0.25481034122539364,0.0012050029824631817,3.5768276305679545,-0.1611569253592394,0.04050622339110209,0.05696293796495988,-0.6898030660836385
10.01771593093872,37.13231907349525,8.753389737935418,2.4973207111834475,1.5462221078826017,0.25260623590481707,0.001975542564847238,3.6053337865369297,-0.0605350013943812,0.03657789704905937,0.054803311023732704,-0.10798134706135887
10.037651062011719,37.16351555296958,8.757927753650193,2.497693031485858,1.6090594153405584,0.24057045085956172,0.010692083299580286,3.662919774994566,0.18304880650211033,0.030835776201092274,0.046195730025181625,-0.43037904992755394
10.057837963104248,37.19643279442062,8.762791013790112,2.497912672673161,1.6828321174854712,0.2465012264418097,0.01125390367086104,3.713139434989609,0.4067557634077252,0.02539614147858949,0.04660026330310174,0.020226663896005803
10.07782244682312,37.213510659535544,8.764829871325484,2.498196129933528,1.7223007890548054,0.23959116346730364,0.01620459695191518,3.713685227096094,0.6323572503553059,0.019294732866508797,0.04157613109511882,-0.25120661039914616
10.09760332107544,37.28579244083049,8.773886257486394,2.4990528463197057,1.8816581368373657,0.2403590026060624,0.021571033289913697,3.6537542848459577,0.7310949208081334,0.01226982251950836,0.035151614285730215,-0.32122584046943015
10.117780685424805,37.32415241774106,8.778845771849536,2.499486273577412,1.9541436928074345,0.25589051951456526,0.021749668783013293,3.5949956522647675,0.8205244741018288,0.005662557902323582,0.039139806178998704,0.19940959466342445
10.137654066085815,37.34437353430709,8.780994582315271,2.499776330713731,2.004056230226975,0.25253693539048694,0.023707055635907255,3.5173746006049194,0.9278813903362011,-0.0006974912943909293,0.03466765777267078,-0.22360742031639624
10.157940149307251,37.385153094837655,8.786237545716887,2.5002499283802875,2.07365010981162,0.27208346091283286,0.023632843665570086,3.4424597704727278,1.0251023328083357,-0.006657849289107723,0.03968406541259828,0.250820381996375
10.177783489227295,37.406761927740085,8.788658457983882,2.500505594368404,2.12811067807538,0.27341397701261944,0.023966459450177117,3.4228873964665394,1.117265957379221,-0.012023841752470078,0.03621509059208439,-0.17344874102569463
10.197679996490479,37.472954022903416,8.79706210548061,2.50119213005573,2.2534322707623753,0.29941640341056747,0.022705815152415914,3.372291282981876,1.2238918759410307,-0.016710608443970355,0.04028005672712709,0.20324830675213512
10.2177414894104,37.518693746201166,8.803301793461388,2.5016426081034915,2.3203709307908906,0.3248728087636827,0.02232745135382954,3.321553253702632,1.3200203593854145,-0.02107221716238177,0.043841157463738956,0.17805503683059332
10.23771357536316,37.56695747373358,8.809734586299031,2.502004111755949,2.4158900083359076,0.3441383397798662,0.01982308990472278,3.2433765213299717,1.4404812399141416,-0.024340365631807654,0.04448455662760331,0.032169958193217774
10.257660865783691,37.61591880973503,8.816912853305649,2.5023955001996745,2.47998782060948,0.3740482557924083,0.019305697502812785,3.1666450563972703,1.5484548538056948,-0.027357556830644746,0.05008017709266266,0.2797810232529674
10.277806282043457,37.641643812676854,8.820525070237078,2.5025238362238498,2.5326792773038322,0.3844627808148238,0.017176620236475003,3.067894057632288,1.6324246496946577,-0.029470370947798023,0.04891932794354892,-0.058042457455687035
10.297607421875,37.71982714415943,8.832551263779173,2.5029492311642465,2.647347341354356,0.4271703918471768,0.014050188484775733,2.9644695180130567,1.6889760342151434,-0.03070606614106875,0.05569330583201859,0.33869889442348367
10.317732334136963,37.7733602436716,8.84143577879275,2.503224018187297,2.7056280927592407,0.4614391821654502,0.013424849584480977,2.8641137143352258,1.7364017741228202,-0.031805396978007425,0.05952556783292717,0.19161310004542909
10.33762526512146,37.82926061078616,8.850839794236121,2.5033280001209035,2.792372012799123,0.49256888630343176,0.008749052967854389,2.755982009252159,1.763946188297963,-0.031593659736309954,0.0622056523914889,0.1340042279280862
10.357665061950684,37.885652225481074,8.861045430222422,2.503496678970996,2.84644144533186,0.5280621330211916,0.008119697542753275,2.651577634785024,1.7841756640622708,-0.03133403623381979,0.06738263895349572,0.2588493281003412
10.377748012542725,37.91501921856857,8.8664421696332,2.503452918439236,2.8937764911587025,0.5471874995209007,0.004270725376273785,2.5322180613109655,1.8143028763246838,-0.03009677552575621,0.06791708782255013,0.026722443452720235
10.397630214691162,38.003754993571334,8.883781968648945,2.503438650519751,2.991024882641144,0.6045629389065527,-0.0002952112258937545,2.4208262877358115,1.7785190307577332,-0.027854643771773123,0.07609920453431851,0.4091058355884192
