t,x,y,z,vx,vy,vz,ax,ay,az,yaw,yaw_dot
0.12786126136779785,1.8304252071530533,1.4497318585600798,2.5068485324211442,0.8324597350876962,-0.5262692050267797,-0.002614726993516622,1.4004839708381709,-0.4266001872167284,-0.03442805515411094,-0.49466610030711733,-0.24042702354920564
0.14795851707458496,1.8473491079027209,1.4391271776697532,2.506789525185932,0.8596664465322325,-0.5339040264136726,-0.003277428319531224,1.321313141237294,-0.33813983642953205,-0.031857568229530585,-0.48695739910289104,0.38543506021131435
0.16791343688964844,1.8560351675513191,1.4331109298542646,2.506679979754434,0.8726163386066512,-0.5552942028368207,-0.005663464216652563,1.1388596607669406,-0.27035965065142,-0.02892655960757073,-0.49352960447433647,-0.3286102685722714
0.18815326690673828,1.873703768020581,1.4219552041001824,2.5065611145318876,0.8936797389831159,-0.5600716033658762,-0.006213688805001269,0.969663588573543,-0.20832654885132076,-0.02611575386892061,-0.4829656648961165,0.5281969789109997
0.20793890953063965,1.8831002296980872,1.415749171426004,2.506436162810801,0.9147983296716842,-0.5785156224671227,-0.008172397582969632,0.8657484333586156,-0.17365453067526013,-0.023083225828801856,-0.488463455295959,-0.2748895199921275
0.22788405418395996,1.9116855800734296,1.3978366663363238,2.5061288938282646,0.9619919466013157,-0.5960957642502303,-0.010302819518858647,0.8202770698303298,-0.05394484362570881,-0.0197537698955002,-0.476271013134844,0.6096221080557518
0.2479536533355713,1.9310867392708007,1.3859116248238161,2.5059191005182986,0.977992077015376,-0.5960304873803103,-0.010665953745615459,0.7807054755249431,0.05942723731965747,-0.016586396198980797,-0.47354304764162647,0.13639827466087606
0.26787543296813965,1.951866162563411,1.3733992767246128,2.5056309210860572,1.0193013358985723,-0.6094018932988624,-0.012707897922847352,0.731738421162405,0.1357312049109832,-0.01319338137154644,-0.46454047148087474,0.4501288080375865
0.28807663917541504,1.9723955613005397,1.3612432794418776,2.5053743417052017,1.033494494331305,-0.6059562911244079,-0.012939324866644931,0.6885227248781715,0.20819567586807405,-0.0099787305806533,-0.45730318828572036,0.3618641597577188
0.3079836368560791,1.9833210994764519,1.3547911765513048,2.5052101770064183,1.0558054031730806,-0.6146317218888296,-0.013963256380050882,0.6635692537589948,0.282129905336312,-0.006836175268867891,-0.45661445233921816,0.03443679732511029
0.3278520107269287,2.0157853044957252,1.3360767841678824,2.5047657426401195,1.0897342978623479,-0.6173057802253153,-0.014759410658607001,0.6827425555110578,0.3044184164522791,-0.003702414893682903,-0.4445615811612993,0.6026435588959433
0.34789609909057617,2.037717865074825,1.3237929986133166,2.5044700138212557,1.1035888427573401,-0.6110011096084771,-0.014803626220173928,0.7028666122449344,0.32591832619647076,-0.0007488474000635927,-0.43988448322591234,0.23385489676934768
0.3678920269012451,2.0605119985481797,1.3112607717001497,2.504157347153378,1.1317754153494504,-0.6131431846131827,-0.015120738405763615,0.7037413082028122,0.33926324753556125,0.0020134197201102464,-0.4312313109982715,0.43265861138204187
0.3878941535949707,2.08328842782286,1.2990666445006909,2.5038555107929077,1.1458780179321706,-0.606225441359346,-0.015054250187151008,0.7068917548958474,0.3524913955251783,0.004607718064893878,-0.42316215646364297,0.40345772673142655
0.40798044204711914,2.095063461990332,1.2929585415174099,2.503719676309562,1.1609106324288658,-0.604122375529543,-0.014535772547995877,0.714556105602106,0.3642267835637585,0.006795963316316758,-0.4198408337037023,0.16606613799703407
0.42791128158569336,2.130426615848438,1.2750345341739309,2.5033158562498863,1.1885138211528394,-0.5928126372764491,-0.013455065018275307,0.737123462424468,0.2645811513054483,0.008598534548746282,-0.404823253967197,0.7508789868252652
0.4479680061340332,2.154345853925169,1.263224880434251,2.50304858876492,1.2034873604676242,-0.5884632380762301,-0.013266077820922793,0.7603350961449522,0.17142819935429188,0.010280277927080056,-0.4019268350483385,0.14482094594292505
0.4678666591644287,2.178761936455911,1.2517995437160938,2.5028446491941456,1.2232851568992908,-0.5772111803630208,-0.011563513650242177,0.7725747153901117,0.08229261816266098,0.011383593841330846,-0.38955475317164545,0.6186040938346515
0.48804306983947754,2.203383045990111,1.2402661430022008,2.5026157250426015,1.2388716019087493,-0.5764056274549462,-0.01132549966076645,0.7863154230069619,-0.0007307324844182807,0.012404179419054442,-0.3858709837751242,0.18418846982606318
0.5079705715179443,2.2158524685072627,1.2349071268183285,2.50254272687223,1.2480860308898187,-0.565321779918508,-0.010069898629727344,0.8175965868646085,-0.07941219269632667,0.013000951219230415,-0.37871195071537533,0.3579516529874427
0.5278971195220947,2.253644256083089,1.2184604893515552,2.5022835195213218,1.2723144860274098,-0.5524495782750495,-0.008621341578339487,0.8586199591897182,-0.13854895028588005,0.01324537952470183,-0.3658189483338057,0.6446501190784826
0.5478911399841309,2.279264976403149,1.2073800620947077,2.502113756392844,1.289892401920197,-0.5557758813564854,-0.008354267309680717,0.8990766320508335,-0.19337086361234468,0.013456581918653305,-0.3660025161890288,-0.009178392761155507
0.5679290294647217,2.3051295864583543,1.1970465426967636,2.502004699906614,1.3050908906186935,-0.5396472821923232,-0.006703658883441358,0.934913555318932,-0.24396429573565676,0.013252115020893946,-0.3524423993238668,0.6780058432581004
0.5879058837890625,2.3314207548748542,1.186201631282627,2.501873263235614,1.324143988038371,-0.544999216955421,-0.006440708672352483,0.9703245232632262,-0.2905732449135645,0.01304198243071923,-0.3520221254482818,0.02101369377924822
0.6079342365264893,2.344575525560028,1.1812316642952339,2.501846201322449,1.3301088483110977,-0.5341537216052106,-0.005264722383416045,0.9892525454277648,-0.3174574367153897,0.012564162045089927,-0.34519012129260407,0.34160020778388756
0.6278469562530518,2.3847492445724696,1.1655224807290985,2.5017319424523357,1.354760568512753,-0.5309674412470083,-0.003809666743524494,0.9821961420724218,-0.3429592532597833,0.011804295003196914,-0.33797863111283366,0.3605745089885204
0.6479766368865967,2.412040501229661,1.1548329919016722,2.501658060877421,1.3743466543372378,-0.5380563546136883,-0.003580919999194907,0.9766625414912578,-0.3654345691960319,0.01107550965284037,-0.33879195667359463,-0.04066627803804845
0.6679441928863525,2.4395211530145384,1.1445631189443228,2.5016450753261825,1.388953187861785,-0.5316429475083513,-0.001965400789833828,0.963306738717024,-0.37996663651600227,0.010032556616715005,-0.33084894515076924,0.3971505761412697
0.6882953643798828,2.4674920750009446,1.1338534227427477,2.5016077068846796,1.4081002872461854,-0.5393668210390409,-0.0017747474975861335,0.9516888842057163,-0.39201236034591314,0.009041297280076402,-0.33091297087752736,-0.003201286337906062
0.7079372406005859,2.481552598739146,1.12873457557131,2.5016229970627815,1.415655042045338,-0.5350656141799712,-0.0007712515850350464,0.9383825155169832,-0.3969064079808125,0.007914275709379137,-0.3272065677849243,0.18532015463015306
0.7280521392822266,2.524424759501845,1.1127357667636828,2.5016335954521454,1.4430788007175064,-0.5405284153434334,0.0003105811292626571,0.9120606229682643,-0.39976397316510065,0.006631332729093672,-0.32373748409574077,0.17345418445917637
0.7479665279388428,2.5534671306473946,1.101845143229242,2.5016410514519962,1.461079727297387,-0.5485376177010362,0.00043098431642061235,0.8884834539420504,-0.400868782452942,0.005420944057936736,-0.3246866707073224,-0.04745933057908047
0.7678914070129395,2.5828828254584373,1.091024969082551,2.501691126993682,1.4791335332835285,-0.5510918058112573,0.0015237710455251732,0.8581124285272155,-0.4042811999515089,0.0040755260707486,-0.32084507783694427,0.19207964351890539
0.7879290580749512,2.6126352312313434,1.0799221435617221,2.5017223318883635,1.4960149320485576,-0.5591958598208832,0.0015925037169439672,0.8304776777439424,-0.40581625413283945,0.0028110837086411902,-0.3208259131620972,0.0009582337423541532
0.8078882694244385,2.627680462987542,1.0743916408451957,2.5017603878083134,1.5053059396116486,-0.5610159612322065,0.0022276951529937145,0.7960712982514039,-0.4058362545041156,0.0015375649176866148,-0.3198770261857904,0.047444348815339765
0.8279557228088379,2.6732835360209983,1.0574187497813752,2.5018461502335994,1.5313188776692266,-0.5721261752647637,0.002774556721190655,0.7534155210780282,-0.4066548315615075,0.00023596060099339766,-0.3188617523407573,0.05076369225165411
0.8480010032653809,2.704057945306522,1.0458949319393689,2.5019016060587753,1.5459926432416966,-0.5802522840290124,0.0027669710105737598,0.7145916154248259,-0.40565831696792476,-0.0009805083058478145,-0.31983772782874675,-0.04879877439947222
0.8679165840148926,2.7352852093695565,1.0342174359418677,2.5019760604025527,1.5642662482955096,-0.5881665513421919,0.0032010169425976554,0.6836442506299766,-0.3944158162079595,-0.0021662352921913673,-0.31840953123651383,0.0714098296116461
0.8879613876342773,2.7667053568891293,1.022376018586725,2.5020395725740268,1.57765576562907,-0.595934570335152,0.0031465220832961214,0.655821488579724,-0.382232270819936,-0.0032697044248373615,-0.318225652473771,0.009193938137141977
0.9079091548919678,2.782643752206813,1.0163676336346426,2.502078436026023,1.587610113750353,-0.6005866903869752,0.0033130555212836157,0.624609208093596,-0.37152482595624825,-0.004278172252675346,-0.31841292752437145,-0.009363752530022751
0.9279680252075195,2.8306922219255846,0.9981129956292549,2.5021811028423953,1.6100650726837913,-0.613590584687526,0.003320156778362325,0.5983238811744718,-0.3482767593866428,-0.005212556472653264,-0.318320708013172,0.004610975559971031
0.9479513168334961,2.863011565108923,0.9857730766583491,2.502246404795463,1.6217902175609882,-0.6203239442475593,0.0032071644963193985,0.5746143419750492,-0.32506651582263685,-0.006074795727411653,-0.31876876788266584,-0.022402993474690547
0.967897891998291,2.895732631449665,0.9731443440996277,2.5023133774999415,1.6373598958650981,-0.6307898266596872,0.003174173388297263,0.5622157162467644,-0.31101503092505844,-0.006825393633001517,-0.3187698127314347,-5.224243844192955e-05
0.9881000518798828,2.928591550943008,0.9604673076342857,2.502375449044613,1.6484976974490566,-0.6368652384951575,0.0030306913732363184,0.5519079097658702,-0.29644100574771176,-0.007512332164143494,-0.3177527382074059,0.050853726201438576
1.0079560279846191,2.9451854203972188,0.9539514768375686,2.502406415639565,1.655986106184143,-0.6436303644322665,0.002978299531934193,0.5186816252028497,-0.2995432534302124,-0.008093172581063393,-0.3192533613315196,-0.0750311562056849
1.0281519889831543,2.9951736855281514,0.9343867610830614,2.502493310344617,1.6741496699029004,-0.6549738542083411,0.002764973355004364,0.5757975520809042,-0.17202311654850522,-0.00858468817767483,-0.31851290892550255,0.03702262030085279
1.0479786396026611,3.028775530546573,0.9212611367546556,2.5025468626569434,1.6862175292288477,-0.6571797389860575,0.0025887889068745913,0.6306074145764509,-0.04936989972833349,-0.009025401850200222,-0.3170933062644896,0.07098013305064654
1.0678699016571045,3.0626144620980456,0.9077997872685349,2.5025981415762883,1.6985460408492972,-0.6655952925712496,0.0024372501517686673,0.6940629755417486,0.06672641179968812,-0.009368490857844082,-0.31704387757087504,0.0024714346807286347
1.0881130695343018,3.0967282718097415,0.8945087267076028,2.5026449921705356,1.7130362053998283,-0.6631397202350598,0.002246809227113903,0.7544465056564192,0.17804078914032928,-0.009668524322698161,-0.31219650697555723,0.24236852976589063
1.1079254150390625,3.113748005239149,0.8875078102886996,2.5026676701540054,1.7167605466979676,-0.6715749497348024,0.0021689011843639733,0.8238110104196302,0.26319065006044456,-0.009898096931693254,-0.3157117813113306,-0.1757637167886683
1.1279065608978271,3.1653398532730708,0.8669636331648017,2.502730181273589,1.7331068201479312,-0.678562722180132,0.001928464282467263,0.797355248733576,0.23780288281058765,-0.010060924986237401,-0.3129313711533417,0.13902050789944553
1.1479530334472656,3.2001598515627423,0.8534383400343497,2.502766729187248,1.7488150861442835,-0.6740450194097632,0.0017258950869785267,0.7739769907653521,0.2142736132928431,-0.010190540141833978,-0.30897570593260326,0.19778326103692123
1.1678473949432373,3.2349423054712703,0.8394511701264769,2.5028069707146514,1.7560329064595048,-0.6825350459719826,0.001722176610257763,0.771356188467355,0.22166941811101895,-0.010292290585360863,-0.31031814928067103,-0.06712216740338839
1.1880056858062744,3.2702171298596308,0.8258452737106136,2.5028393505093995,1.771445424794822,-0.6780314333211802,0.0015155635461889057,0.7701231573949089,0.22861829292119903,-0.010364101140406274,-0.30441330188392035,0.29524236983753394
1.207918405532837,3.287864147827331,0.8189379640554044,2.5028585799908645,1.7764448490654323,-0.6793847085065103,0.0015403795978124108,0.7930257057270624,0.23523121514538434,-0.010416475904225968,-0.30533581157577894,-0.04612548459292931
1.227884292602539,3.34144202659411,0.7986119612050602,2.502903934926514,1.798101623724085,-0.673659792036782,0.0013378331304661165,0.785857096454451,0.2350563609720211,-0.010424995636469259,-0.297996358048628,0.3669726763575465
1.2479398250579834,3.3775608186115917,0.7851857776296041,2.5029286072542836,1.8137580666519373,-0.6689583093660229,0.001129453035351631,0.7800030341603706,0.2351330473810767,-0.010408992067896186,-0.29529877359468415,0.13487922269719288
1.2679133415222168,3.41388918764649,0.7718309529601756,2.5029582190754107,1.8268359718373477,-0.664780112991568,0.0011573889525906317,0.7835644761744115,0.23472200120528824,-0.010387372493921852,-0.29110706303191813,0.20958552813830078
1.2879886627197266,3.450582896812807,0.758582270449948,2.5029792919611844,1.8425494300693046,-0.6600893257190613,0.0009500473397755401,0.7879095838448688,0.23436565776194698,-0.01034307037163997,-0.2868324330958165,0.21373149680508075
1.3079991340637207,3.468981348644086,0.7519913030513632,2.502996251450629,1.848601036346674,-0.6577547332336543,0.0010761999817994125,0.7967629737145272,0.2352556378476235,-0.01031759934463856,-0.28592190758950586,0.04552627531553277
1.327868938446045,3.524729707124469,0.7323868973840412,2.5030316605337624,1.870693140795027,-0.650017209996092,0.000986175952992486,0.8120741316564504,0.2321169367271193,-0.010281367260889308,-0.2787338144617557,0.3594046563875075
1.3479561805725098,3.562307002673598,0.7194327785792957,2.5030493312874156,1.887087258063027,-0.6454043852781433,0.0007810926892907075,0.8273271670222362,0.22920239719553528,-0.01022339623327772,-0.2761279201725886,0.1302947144583566
1.3678991794586182,3.600118616298644,0.7066685694106963,2.503071383491328,1.9012874721159425,-0.638207628029486,0.0007829156438183568,0.8330640645576773,0.22964765213884625,-0.010156483342212905,-0.271024870260387,0.25515249561007813
1.3885917663574219,3.638311383585072,0.6939503728009268,2.5030850159578524,1.9180098751216774,-0.6336107657264528,0.0005806197023120306,0.8392493134583496,0.23002783965772472,-0.010069886487867885,-0.2672209136428352,0.190197830877592
1.407902717590332,3.657474440107106,0.6877238172989021,2.5030946567332126,1.9246604227686843,-0.6284510183515652,0.0006030551017411551,0.8286314781009321,0.23424666979721842,-0.009979913628971956,-0.26518907451647156,0.10159195631818108
1.4278960227966309,3.7155451569252187,0.6690740774693852,2.5031118990120733,1.9482893697967687,-0.6186836706838948,0.00040735070668626046,0.8175574900961654,0.22790260975023022,-0.009855064110080953,-0.2578579115977768,0.3665581459347367
1.4478731155395508,3.7546737929732377,0.6567455812806599,2.503118084122117,1.9645423293880293,-0.6141857896949271,0.00021162855590803702,0.8079850734856847,0.2219500140324046,-0.00971459630758747,-0.25553296101864564,0.11624752895655899
1.4678535461425781,3.7941113757667453,0.644649471227188,2.503123391273533,1.9804433866701758,-0.6062242286785209,8.637967730796736e-05,0.8073219121081058,0.21437523756097024,-0.009540198777405294,-0.2502525843990835,0.26401883097810774
1.4880084991455078,3.833881707379077,0.6325673827591487,2.503123223057401,1.9965904641608851,-0.6020081366987959,-0.00010257995591477437,0.8075282989212842,0.20731946660103767,-0.009353806627719495,-0.2470149362849341,0.1618824057074697
1.5079357624053955,3.8539007094303046,0.6266558938333298,2.503121732395539,2.0050732128329645,-0.5971584476589514,-0.00019689827239003488,0.8124733266583266,0.20292508464089173,-0.009145475141688434,-0.24485395137715393,0.10804924538900806
1.5279231071472168,3.9144253114962333,0.6089396201215864,2.5031108526675667,2.0295762083275624,-0.5880372447690563,-0.0004938586031199144,0.8074888126670177,0.19958887019354898,-0.008882171677253602,-0.23816911782293504,0.3342416777109447
1.5479040145874023,3.9551780469421045,0.5972185927767416,2.503099216880471,2.045683762657533,-0.5840751371698182,-0.0006688248659040176,0.8034162615281628,0.19669441334480223,-0.008613605050869512,-0.23608198935876246,0.10435642320862915
1.5679864883422852,3.996255425588317,0.5857324510659963,2.503082708045757,2.0617359894258334,-0.576316015668611,-0.0008749010355602774,0.7913705234247694,0.19160552604896028,-0.008302852725788611,-0.2311461625861555,0.24679133863034775
1.587986946105957,4.037647684014877,0.5742441413969005,2.5030635702348394,2.0774541886248064,-0.5725300017730433,-0.0010378400878102681,0.780670506420726,0.18709009802266288,-0.007990866053845904,-0.22831336624061427,0.14163981727706165
1.607961893081665,4.058473041600935,0.5686199475168113,2.5030514672776767,2.0855709690520996,-0.5680549240594154,-0.0011545812464395788,0.7746630218581338,0.18808872902600154,-0.0076660347517620245,-0.22633334090055435,0.09900126700299605
1.6279504299163818,4.121419675975247,0.5517431486121572,2.5030108822824597,2.1096664303014867,-0.56018831313268,-0.001454697136840053,0.7703495063330612,0.1844029353942941,-0.0072897424387802475,-0.22051784885604064,0.2907746022256852
1.6479554176330566,4.163766830090361,0.5405760442143234,2.5029803552397567,2.125037468501208,-0.5565326199685363,-0.0015967687045866405,0.7668952368082347,0.18125468228490832,-0.006918215075470762,-0.2185812768787394,0.0968285988650619
1.6678900718688965,4.206466378696176,0.529581005653611,2.5029422412720734,2.1414050791050028,-0.5504840315033377,-0.0018519898141286057,0.7568599280117968,0.17848192677079547,-0.00650206726917119,-0.2144773850918753,0.205194589343205
1.6880061626434326,4.24944523690768,0.5186068642263997,2.5029039283673375,2.1564508544327428,-0.5469375170154994,-0.001977942701261488,0.7478931326688891,0.17625990651643783,-0.006094679377513413,-0.2118590617392444,0.13091616763154512
1.7079253196716309,4.271071468714758,0.5132015550259108,2.5028810601647646,2.1645082982656056,-0.5436527555348724,-0.002113931072566898,0.7350313413332397,0.17157937262966058,-0.005681546269743658,-0.2103405707731918,0.07592454830263051
1.7279222011566162,4.336366929660956,0.4970147534136167,2.502812338677793,2.187133473556994,-0.5378239208188585,-0.002358739707306957,0.7023876807620504,0.09709225525560303,-0.0052324325889829245,-0.2056182230127681,0.2361173880211842
1.7478594779968262,4.380248060016619,0.486272953360104,2.5027641466729906,2.2008813479498675,-0.5365893727904669,-0.0024590079953644346,0.6729219742676702,0.02710412749764706,-0.004796596834223204,-0.20455856061828648,0.05298311972408154
1.7679193019866943,4.424473862813326,0.47570061150514986,2.5027087606623137,2.216099777375546,-0.5323016104327047,-0.002691486138807541,0.6464634022344657,-0.03553620844679525,-0.0043285996214687955,-0.20121836248311675,0.16700990675848626
1.7879750728607178,4.468923526817749,0.46504349701463543,2.50265409560613,2.2287877027616463,-0.5336052824560535,-0.002773513601889262,0.622785973356558,-0.09417085481112623,-0.00387683245254748,-0.20047294484018652,0.03727088214651175
1.8078815937042236,4.491322752357723,0.4599038938228244,2.502619889822352,2.2371524635299025,-0.5291628108526711,-0.00299133708102516,0.6037505397565458,-0.14411246978507633,-0.003405254602189222,-0.19824110886191137,0.11159179891375715
1.8280479907989502,4.55880549680412,0.44423278562033935,2.502521126292175,2.2577400268882037,-0.525961937090179,-0.0033023982193321343,0.5733887370847053,-0.1586587145291493,-0.0028797173528179827,-0.19497182018991,0.16346443360006901
1.8479588031768799,4.60407309699897,0.4336808950030098,2.5024545362810695,2.2689284842110715,-0.5292723137709571,-0.003354926851150808,0.5459348641613101,-0.1722157930996392,-0.0023768986031301124,-0.19542332801342388,-0.022575391175694293
1.8678758144378662,4.649690535037079,0.4233737806797082,2.502377666910369,2.282937299612981,-0.5253764526535168,-0.0036238577374963503,0.5276997314353221,-0.19107193808004766,-0.0018397099685620076,-0.1921754536485838,0.16239371824200433
1.8878931999206543,4.695453705709595,0.41282684901476446,2.5023048563456998,2.2933256507290234,-0.5293749914245659,-0.0036554932422612815,0.5114636829225965,-0.20855571378732832,-0.0013280557348054503,-0.19257706026329835,-0.02008033073572779
1.9079351425170898,4.718488396674546,0.40764332695072186,2.5022638293131636,2.300314367275663,-0.5281946472950739,-0.0037870020492258368,0.48224711386194297,-0.21451843735886583,-0.0008277396202740496,-0.19135659527088889,0.06102324962047323
1.9278998374938965,4.787796825648273,0.39178751147788904,2.5021467776030506,2.3176752562806002,-0.5315190105280447,-0.003891947524517219,0.5515836668374137,-0.12426395066555565,-0.0003226010452618877,-0.19038154938475582,0.04875229430665318
1.9478950500488281,4.834265031140544,0.3811382020268238,2.5020689064735255,2.329360544582766,-0.5331173114106678,-0.003893570365786304,0.6161609588616624,-0.03587690591979393,0.00015592658088783233,-0.1897637156461771,0.030891686928935513
1.9679019451141357,4.880955901660763,0.37041007862689673,2.501989592131096,2.3410706205914384,-0.5352266908257246,-0.003911174186226603,0.6728501151034231,0.05847023731647358,0.0006061300377140376,-0.1889215597615017,0.04210779423376998
1.9879415035247803,4.927915455727406,0.3597233947868895,2.5019115186284937,2.355059950918854,-0.5331361147788097,-0.0038947590515603044,0.7254011533463259,0.15014423445674488,0.0010312454478819634,-0.18662849737068088,0.11465311954104163
2.0078957080841064,4.9513413271250215,0.3541743513944198,2.5018756208406354,2.3580558762913664,-0.5376180740306062,-0.003789183310389188,0.7825918895454285,0.22589386301985662,0.0013917746066774116,-0.18806859038091206,-0.07200465051155902
2.0279877185821533,5.0221723071630056,0.3377700872940709,2.5017677096189876,2.37442947670725,-0.5411434862285937,-0.003594350171323947,0.8390714062564149,0.2917228350823326,0.0016949921672782242,-0.1866651608581522,0.07017147613799235
2.047980785369873,5.069832244686955,0.327009894475944,2.5016961809154266,2.391737152192791,-0.5346601184723794,-0.0035575701529418115,0.8909361920938786,0.35642588887615456,0.001980008131919238,-0.18318293423802068,0.17411133100657672
2.067870855331421,5.117428524986247,0.31582220207682926,2.5016367693920967,2.39940040478903,-0.5410795594872406,-0.003224497738631943,0.9255737712639628,0.42233311458755385,0.0021655956701240294,-0.1845968581003654,-0.07069619311723674
2.0879552364349365,5.165603786978663,0.30508939221407083,2.5015727243317425,2.4182299561133584,-0.5319870057544134,-0.0031794293697555653,0.9568236507396545,0.4866595813402592,0.002339277974594429,-0.17939811857698107,0.2599369761692172
2.1079442501068115,5.189575112760461,0.29944541679305886,2.5015507275332665,2.4207955944606114,-0.5368298195565865,-0.002873973323900798,0.9911153408722313,0.5012633360646881,0.0024238095708931312,-0.18154630754096912,-0.10740944819940257
2.1279287338256836,5.262395837803921,0.283228699101937,2.501476899570854,2.442958078791331,-0.5319554130920514,-0.002475512014337952,0.9258591340726787,0.4127246702681825,0.0024200723376751583,-0.17707398485359604,0.2236161343686538
2.147972822189331,5.311436026173044,0.2726664792988784,2.5014278730557353,2.4608568827663517,-0.5245453375105145,-0.0024271546284183832,0.8646948470837935,0.32909184459211976,0.0024155331709793974,-0.1740271544871499,0.15234151832230758
2.167930841445923,5.360639127543369,0.26202276940533176,2.5013970973650133,2.473910499137922,-0.5230723556352785,-0.0019735319706688445,0.8350007895826782,0.2555557575250476,0.0023088442321046237,-0.17263152435911788,0.06978150640160052
2.1881048679351807,5.410282470623017,0.25160775447000006,2.5013580816668752,2.4903323022975905,-0.5186594089617004,-0.0019283745359419612,0.8075477799083386,0.18647277451750563,0.0022078340459665193,-0.16982070164728125,0.1405411355918318
2.2079854011535645,5.435259485264134,0.24653357776813334,2.50133958177615,2.499510967528611,-0.5134009596115915,-0.0019056836459379958,0.8125718405142195,0.21410679324661264,0.0021197432354432425,-0.16797066322075915,0.09250192132610469
2.2278871536254883,5.510688373696907,0.23142514988350335,2.5012777587462547,2.5260933561188197,-0.5012443940486074,-0.00200843282036291,0.8156603825477542,0.24170731521920666,0.0020813514397546363,-0.16212635046223367,0.29221563792627414
2.247912645339966,5.5613735830291535,0.2214503571036833,2.5012380038776794,2.5424381507758373,-0.49614862427777967,-0.001967176897422989,0.8188323572631957,0.2675858489254666,0.0020444926026704268,-0.16029940977312895,0.09134703445523584
2.2678797245025635,5.612449565992022,0.21173495950256396,2.501192900204871,2.5602614077493144,-0.4872289241406447,-0.00206016736999732,0.8222442075488664,0.2888359650584291,0.0020476992633356194,-0.15630947052799327,0.19949696225678437
2.2887392044067383,5.663819468705802,0.20204949228971206,2.501152106551069,2.5767401187489036,-0.48125178793100853,-0.002019191314560715,0.8256206804797442,0.30863928077244207,0.002049708283566526,-0.1537484224842114,0.12805240218909386
2.3079261779785156,5.689629058244896,0.19724244302016586,2.5011331047535172,2.5849423487074636,-0.4784686986724304,-0.0019626689311142828,0.8202365261394527,0.31746976838671986,0.0020433309569204963,-0.15272640987678754,0.0511006303711925
2.3279170989990234,5.767540663097697,0.18298558734823897,2.5010770891859146,2.6092672044611227,-0.47025460030829286,-0.0018486118488173166,0.8022790565845015,0.311862457599472,0.0020235068784269874,-0.14834078453849253,0.21928126691475036
2.34794020652771,5.819885303587346,0.17364252675625919,2.50104052033098,2.625139495266928,-0.46406797630774466,-0.0018083395761205668,0.7850740003449569,0.3069068982994328,0.0020037273245298503,-0.14605128473008433,0.1144749904204101
2.367950439453125,5.872584238815267,0.16442939550310734,2.501003034944588,2.6418109480727803,-0.4574449424118285,-0.0018256100506004998,0.7640886463514723,0.31516729715883685,0.002000775584274969,-0.14310003369072755,0.14756255196783918
2.3879828453063965,5.925571936500844,0.1553440607218455,2.500966922645185,2.656892856959306,-0.4510623373930168,-0.001785633499958586,0.7442990999042908,0.3230268909800045,0.001996692888724912,-0.14046390262566355,0.1318065532531998
2.407900094985962,5.952245597215059,0.15090349454229435,2.5009443997921736,2.6662813601081723,-0.4461169986263621,-0.0019056741333548398,0.743170981549053,0.3416147914705154,0.002028884572090695,-0.1388132119930443,0.08253453163096225
2.42787504196167,6.032649862313454,0.1377098136094347,2.500882497820682,2.690854712333331,-0.4347421150942442,-0.0020041826139659126,0.7439203949228294,0.3611599929118125,0.002097636029271437,-0.1338701461953402,0.24715328988520469
2.447904109954834,6.086615803176949,0.12908843663361178,2.500842837975506,2.7057427051426646,-0.4273350627329005,-0.0019615929029397107,0.7449195391117146,0.37931645274978604,0.0021603385607716777,-0.1314854311977527,0.11923574987937613
2.4678726196289062,6.140948203365323,0.12061076893499882,2.5007988949769624,2.7222000641958015,-0.41994810220287215,-0.0020340990719486095,0.7444298262999534,0.3963840924137617,0.0022441771274488054,-0.12851859828624912,0.14834164557517848
2.4880552291870117,6.195541069753056,0.1122921551723859,2.5007586670476876,2.737085723117704,-0.41186079283779475,-0.0019884391457275284,0.744174214711612,0.41212897702248324,0.002320592998851739,-0.12555556473681628,0.14815167747164182
2.5079379081726074,6.222957414374384,0.10815449724055591,2.500738772832412,2.74471650513879,-0.40876367169024697,-0.001964488415826623,0.7434270411457172,0.4259205092465743,0.002386192647288546,-0.12464476687884751,0.045539892898438517
2.5278289318084717,6.3333319125367264,0.09207457605781898,2.500663361072576,2.7741465438393296,-0.3932723466903641,-0.001837414375524768,0.7356468219195818,0.4392904945274826,0.0024327472697037856,-0.11826390974598855,0.3190428566429482
2.547945737838745,6.3889614894040445,0.08429782170006236,2.5006271021524173,2.788787552275509,-0.3843623006032894,-0.0017883414418167355,0.7285692631138903,0.45152747874493565,0.0024736092036045866,-0.1157937619670637,0.12350738894624236
2.567894697189331,6.416882175694679,0.0804581203796788,2.500609294644819,2.7959710470235923,-0.3802019796775409,-0.001766966360971211,0.727259976337599,0.4688950917622102,0.002507536342235915,-0.11448381043291711,0.06549757670732959
2.5879523754119873,6.472946979364325,0.07294894142023914,2.5005744588285106,2.8105061498451724,-0.37066308898304495,-0.0017165193290481187,0.7263086912427239,0.48474388567720056,0.002536320793361201,-0.11098525650113089,0.17492769658931095
2.6079769134521484,6.501093335998966,0.06924481430850978,2.5005568412302983,2.8180238736916823,-0.36623861408714375,-0.0017068020769290626,0.7417592180429856,0.5081421688088663,0.00256224006963257,-0.10981631881062182,0.05844688452545377
2.627920389175415,6.585954229833997,0.05844357706864784,2.5005069597322143,2.839992126021819,-0.3520184534920101,-0.0016217440528820133,0.7625691440739657,0.5352855896278589,0.0025770738352632375,-0.10456947284683427,0.2623422981893775
2.6479270458221436,6.642907925882689,0.051511960485299886,2.5004750410399423,2.8554436760954673,-0.3410603141649923,-0.001570090000913662,0.7824285378711393,0.5601537096384263,0.0025876278157838132,-0.10136146438096238,0.16040042329359405
2.667844772338867,6.700090104286148,0.04471352247004511,2.5004483382704885,2.868826509362718,-0.3319867621599414,-0.0014014871798950497,0.7811834748377515,0.5823938513444499,0.0025602814120312452,-0.0984488434384998,0.14563104712312924
2.6879305839538574,6.757622806858559,0.03819164290804159,2.5004208186731813,2.884440836323478,-0.32013408711541147,-0.0013505694706689054,0.780309733427371,0.6025267975890461,0.002531206454876936,-0.0946384754638161,0.1905183987341852
2.7078733444213867,6.7864241161835235,0.034947848737669165,2.500413351126767,2.8898685493391256,-0.31600286688641394,-0.0011547428136880887,0.774405779727359,0.6214878063894435,0.002457465115683401,-0.09368911645160383,0.047467950610613485
2.727898120880127,6.873407348118383,0.02566912922715721,2.5003856086052973,2.9116109465282554,-0.29945882305979005,-0.0009191657125324398,0.8000756694998665,0.6335522963580644,0.0023400114864023727,-0.08797410977204878,0.2857503339777523
2.7479207515716553,6.931801225583323,0.019807396519325237,2.500367685672149,2.927857848297573,-0.28667894979052233,-0.0008735052125917252,0.8243905434556609,0.6442022755847165,0.002226727140833154,-0.0843470763151557,0.18135167284465403
2.767885446548462,6.990428564904204,0.014122782811347151,2.5003569998322583,2.9420349094429006,-0.2756483839431827,-0.0006737300243429165,0.844005293753749,0.6509966436542979,0.0020791579945278896,-0.08100680532998439,0.1670135492585656
2.7879340648651123,7.0494393120655445,0.008740409067504737,2.5003439315487,2.9591012165789747,-0.26257021814957965,-0.0006335687372525687,0.8624286130850958,0.6566288532171154,0.001938034142131506,-0.0769797316968015,0.20135368165914436
2.807922840118408,7.078981962923599,0.0061195714397141035,2.500342578802118,2.9652060907624525,-0.25667931949737377,-0.0004730130562112809,0.8764395156481419,0.6660580233411136,0.0017736579476633214,-0.07551897992667245,0.0730375885064527
2.827888011932373,7.168216430099014,-0.0012979775807523718,2.5003353991796744,2.9882647991515348,-0.23709007012246555,-0.0002422419861999466,0.8864288202544905,0.6743849236241859,0.0015707296768722658,-0.06917895539179542,0.31700122674385156
2.8478941917419434,7.228159641481946,-0.005904412333212991,2.5003308554963497,3.0060872207640013,-0.22352999688392053,-0.0002127669475385178,0.8956934914638645,0.6814079715333401,0.0013785453917506112,-0.06540112258891728,0.1888916401439067
2.8678977489471436,7.288298723144563,-0.010249797566913325,2.500336389133135,3.0199708599324095,-0.21006424241600602,4.69721004902207e-05,0.8904631522623044,0.6929022089364236,0.001143843573038669,-0.06145500983020691,0.1973056379355187
2.8880419731140137,7.348875893301515,-0.014311816838906885,2.500337542372965,3.037729318371015,-0.19610476088126302,6.761446307293721e-05,0.8854117882026298,0.7027800866394741,0.0009226127304123051,-0.05731705307435364,0.20689783779266335
2.90787672996521,7.3792208802749215,-0.016243089444705747,2.5003431133408496,3.0445595917794583,-0.1892174987350286,0.00020944174854082426,0.8966485218084023,0.7032719505860854,0.0006920789841751492,-0.05552852076010373,0.08942661571249566
2.9279353618621826,7.470913085499406,-0.021608993280243877,2.5003525753913833,3.070339978011891,-0.1683430634527127,0.00030592543828340737,0.9259236389031478,0.6923902338295833,0.00045859919791830665,-0.04899661607001082,0.3265952345046452
2.9479432106018066,7.532506932848889,-0.02483808312285315,2.5003587707874413,3.089136447838323,-0.1546009423034196,0.00031288459704889007,0.9534314390806582,0.6818836315408624,0.00023972244399750317,-0.045163716102480045,0.19164499837653892
2.967916488647461,7.5943843181689195,-0.027761285932491532,2.5003672523568667,3.1058897793499325,-0.1401868401799763,0.00037127720962060065,0.9820210549900142,0.6619172686169156,3.2005784496590495e-05,-0.040941309850961005,0.21112031257595198
2.987952709197998,7.656700326557102,-0.03043390928035074,2.5003746711444093,3.125799883652116,-0.12713799077507268,0.0003699550040195379,1.0086689489223848,0.6431678964320687,-0.0001619617987089645,-0.03711660152705898,0.19123541619510132
3.0079193115234375,7.6879044207350145,-0.031612514611670396,2.500380836061856,3.1330551126707737,-0.11901189615185534,0.00043920952112421006,1.030282026039731,0.6327157228648111,-0.0003493807872009947,-0.03488157459226082,0.11175134673990783
3.027888774871826,7.782222944886637,-0.034805004272507295,2.500396923819968,3.1601561354205003,-0.09746091444971586,0.0005144983385053537,1.0407839983756342,0.62099054057168,-0.0005405216369501874,-0.02834028383289855,0.32706453796811363
3.047891855239868,7.8456348774318245,-0.036630772358931335,2.5004070936299314,3.1810689936728704,-0.08515273515776635,0.000501891384071677,1.0503466453337793,0.6099379423195249,-0.0007179092975047481,-0.02486736634962483,0.17364587416368593
3.0679004192352295,7.909295798834079,-0.03807625695007761,2.500420124064293,3.1979416266011578,-0.0697267399903644,0.0005572163157913283,1.0507551009275637,0.5934455446133562,-0.0008882836245302523,-0.020342041179897574,0.22626625848636284
3.087953805923462,7.973464790586149,-0.03935314993892917,2.5004310800328797,3.2189576433128027,-0.05801406653533236,0.000537856298093348,1.0507835809376112,0.5779927966040109,-0.0010455624496930659,-0.016934440572095255,0.17038003039011596
3.107940912246704,8.005636366754608,-0.039821428273071176,2.5004362200661148,3.227567933462519,-0.0499702526321979,0.000515977477176415,1.0554837667777444,0.5674645226743468,-0.0011768039846783505,-0.014629888440823802,0.11522760656357267
3.127864122390747,8.10289625475325,-0.04097823978061341,2.5004488046978444,3.2579839322234574,-0.030659623450678197,0.0004083684026551465,1.0454754169858915,0.5462072506192521,-0.0012714469748194577,-0.00885703876341326,0.28864248387052704
3.1479122638702393,8.168264362828289,-0.041483529987223336,2.500456711921916,3.2787936172554253,-0.019935076067637593,0.0003820687480433625,1.0354979534369695,0.5265029142050034,-0.0013570278711061833,-0.005764031021231908,0.15465038710906764
3.167890787124634,8.234019802923449,-0.041648565145370645,2.5004579679590075,3.2987853407114955,-0.006305627382497969,0.00019606044805663107,1.0202670619343954,0.5092236549317086,-0.0013834648357696194,-0.0017503994906453713,0.20068157652932683
3.187901735305786,8.300198564736412,-0.041673921088362174,2.500461610963414,3.3190411985185144,0.0037166749323242713,0.0001681685270085702,1.0053742847346385,0.49321564900463083,-0.0014049069585349875,0.0011823901514502744,0.14663948210478228
3.207892417907715,8.333447287457552,-0.0415230111265037,2.50045739884243,3.3292031221689804,0.011075967089626732,-1.576079656938026e-05,0.9868327547842232,0.48181848113611087,-0.001374147343166118,0.0033463388484347156,0.10819743484922206
3.227867841720581,8.433805847424994,-0.04088434145600128,2.500448744236554,3.359668103850115,0.028033467421977466,-0.0002757797119700685,0.9536092927975883,0.4801591446066459,-0.0012801997630103427,0.008332241567010623,0.24929513592879537
3.24788761138916,8.501187787152046,-0.040227742671026086,2.500442978727617,3.378419821195902,0.03762142542395839,-0.0003004672027786017,0.921794441140229,0.4786633339386641,-0.0011890055292582506,0.011105280795368433,0.1386519614178905
3.267831802368164,8.569041495315913,-0.0392941044413105,2.500422265238455,3.399272142514211,0.04910895796972753,-0.0006918499347943155,0.890386299010888,0.4685166080747703,-0.0010044710081144274,0.014347511411918035,0.1621115308274801
3.288100242614746,8.637202988481938,-0.038218855558755184,2.500408239198258,3.416776927949424,0.058384953246655755,-0.0007101688607621447,0.8603119363718663,0.45922309017632934,-0.0008289007997581083,0.016882080863435345,0.1267284725758655
3.3080015182495117,8.671514671218526,-0.03758655730785072,2.500389635075315,3.4280367109221794,0.06358243565406886,-0.0010464982216082746,0.8324289953156614,0.44840852198820336,-0.0005850038762652571,0.018251762586069642,0.06848408613171486
3.3279428482055664,8.774857900338173,-0.03545327850495782,2.500345498348662,3.456438508568442,0.07769666007171368,-0.0014186402419641437,0.8086783481487594,0.446886287978937,-0.00026284464448731343,0.022035616433247807,0.18919269235890823
3.3478803634643555,8.844146865284078,-0.033810051478277606,2.5003170934973853,3.4723816410440875,0.08662216509993668,-0.001420834480054915,0.7857745579911652,0.4457227974773444,4.0284043259605936e-05,0.024290972158763857,0.11276778627580253
3.367903232574463,8.913915371169752,-0.03197095205171081,2.5002701445515756,3.4919238435887814,0.09593442774924398,-0.0018750482706491765,0.7612186274934604,0.44784250313272644,0.0004308976757484271,0.02662316787608221,0.11660978586591764
3.387946605682373,8.9839044973937,-0.02996255789998189,2.500232754568622,3.506909763485949,0.10491177110787286,-0.0018627302526133883,0.7375137386923906,0.44987757857633387,0.0007968386552245326,0.02884457005309171,0.11107010885047508
3.407933473587036,9.01909588925416,-0.028910554265759596,2.5002039441232045,3.516000203442024,0.10740453087939726,-0.002139407758470925,0.6553470547704389,0.2775254035365433,0.001193037074713057,0.029335841603050916,0.02456357749796023
3.4278793334960938,9.124993701151064,-0.025493471604759402,2.5001314081315797,3.5384997852535163,0.11684069656457789,-0.0023543121151229003,0.5607796008682655,0.12191984411870417,0.0016205033372446343,0.03162401180708985,0.11440851020194653
3.4478964805603027,9.195869871152771,-0.02314214200380026,2.500084673016569,3.5488234412200277,0.11780716594909865,-0.002317872256273109,0.4726448369518279,-0.023613247915082347,0.0020186536861577556,0.03164501782517437,0.001050300904226198
3.467831611633301,9.267228560506611,-0.020389968271918503,2.5000146257042664,3.565152091386518,0.12704540077501936,-0.002920217513485076,0.39068705184876834,-0.16181303531889588,0.0025317811702748917,0.03391279754817811,0.11338898615018689
3.4879047870635986,9.338604571392144,-0.017890155458804086,2.4999567600871244,3.572195436204085,0.12250715977037005,-0.0028647554824625648,0.31461630319538203,-0.29043297543543983,0.003008411063190822,0.032482692484868014,-0.07150525316550471
3.50791597366333,9.374608490948784,-0.016228187477961124,2.4999018201145073,3.582347511163413,0.13168195810172276,-0.0035928074189763948,0.24470971268848232,-0.39372125222537735,0.0036159800438690707,0.034863266849801455,0.11902871824667205
3.5279455184936523,9.482502245555638,-0.0119001384293194,2.499769135961845,3.597811570435568,0.13493276017829117,-0.004225729788747909,0.15538392086423342,-0.4710198121040736,0.004351679216823965,0.035353971785519356,0.024535246785895026
3.5479073524475098,9.55448394196856,-0.009300526333855485,2.499685538033616,3.600083121779359,0.12479165672272277,-0.00413179109702048,0.07289627124701466,-0.5420601337115539,0.00503328199863362,0.03261827643118398,-0.13678476771676884
3.5679068565368652,9.626916633758386,-0.006255594922676088,2.4995770624203817,3.6117354373461676,0.12989484895228337,-0.004656590332530334,0.04968985928904073,-0.5476202456495027,0.0057806209753747855,0.03394890274730722,0.066531315806162
3.587926149368286,9.699159815822856,-0.0037675161370427607,2.499485133665572,3.6125108915600403,0.11889957897508951,-0.004533986365542449,0.02812591938082996,-0.5516561175316673,0.006470279261134857,0.03096311935598628,-0.149289169566047
3.6079041957855225,9.735510756425853,-0.0023309831231946776,2.4994331473567306,3.618885062301776,0.12135127028299175,-0.00464360857541771,0.016882941657746606,-0.4939677704306297,0.00710576203374699,0.03168970786217784,0.036329425309578056
3.6278605461120605,9.844220716478954,0.0011753921008173954,2.499298239558582,3.622962287171398,0.10937330364489228,-0.004376676042850196,0.00520099021274646,-0.40598247645615165,0.007645229230813391,0.028443787391934983,-0.1622960235121429
3.647951126098633,9.916680276059132,0.003287280276356782,2.499212268617283,3.6229582132199187,0.10209237619853476,-0.0042187813464220625,-0.005436783218546981,-0.3229219704677252,0.008136271847834732,0.02667724618340417,-0.0883270604265407
3.667948007583618,9.989192480254982,0.0050763488786154005,2.4991396812942224,3.624098222494371,0.09080205772163027,-0.003794538722085282,0.016006105939101685,-0.24159110633617456,0.008468142338713397,0.023772160299926792,-0.14525429417386881
3.68804669380188,10.061679013219784,0.0068492585340688295,2.4990655044079495,3.6246224137188063,0.08674437011792474,-0.0036221675473215604,0.03620846677581223,-0.1649506744069571,0.008762866132154835,0.02280762670853198,-0.04822667956974058
3.707929849624634,10.097876504426367,0.0073989517215199245,2.499036097138108,3.6235202217655775,0.07688380110020285,-0.0033529481309708116,0.05189394476202837,-0.07177441662379741,0.0089486990956783,0.02024754965842801,-0.12800385250519852
3.7278435230255127,10.20647183044396,0.009227846657042009,2.4989447388959367,3.6211785332397723,0.062478931549349505,-0.0029369757410474488,0.05402845710668898,-0.0033932547504777985,0.009036136041867818,0.01652046154695519,-0.18635440557364102
3.7479617595672607,10.278906349557266,0.010481094418629853,2.4988878112722697,3.6222805227329036,0.06305976275548741,-0.0027555725327475223,0.056171820344685895,0.060783813075933286,0.0091003752575874,0.016780075347008427,0.012980690002661888
3.7680184841156006,10.351114063913677,0.011063047060986776,2.4988412766570547,3.617169227250416,0.04747610535670298,-0.0024052645040606347,0.060243431982461786,0.12061980667256182,0.009067349337567336,0.012628156757216846,-0.20759592948957906
3.787933588027954,10.42346975964589,0.012040488769519068,2.49879498183545,3.618413323368633,0.0504546658181429,-0.002224380813627911,0.0641367001198771,0.1766014183268204,0.009018410831715772,0.013527235393731907,0.044953931825753024
3.807988405227661,10.459487549240224,0.012111255890843914,2.498777580046131,3.6141508007398997,0.040057887937261526,-0.002007921873658686,0.05613290339675,0.2218204107752097,0.008911620668407888,0.01072176751713938,-0.14027339382962634
3.8279507160186768,10.567775100929751,0.012971811634114348,2.4987267933046167,3.6112009272177774,0.03455959947993438,-0.0015850619283458553,0.05185903626292211,0.2612530054106991,0.00872403932954063,0.00930295388140534,-0.07094068178670199
3.8478775024414062,10.640009216584858,0.013717718872582881,2.498696824072744,3.6121970714327,0.040151659719508404,-0.0014125061128319376,0.04778888815982437,0.29741503297573474,0.008530587945389335,0.010839994237853201,0.07685201782239304
3.8678863048553467,10.712039302543507,0.014017325470315858,2.498681313829378,3.607500211156589,0.03261661018359568,-0.0009601170787313866,0.03309243683555037,0.3421110243649156,0.008238672453011428,0.008777210062110186,-0.10313920878715077
3.887963056564331,10.784194985042376,0.01474086689227969,2.498663739830895,3.608021679156578,0.039873717717611966,-0.0007982511243200077,0.01918426996876189,0.3829684286360211,0.007948167972572523,0.010783938496678136,0.10033642172839752
3.9079267978668213,10.820150810713386,0.014846236590663866,2.4986653553019753,3.604567133616599,0.03525961285415989,-0.0004556667652310699,0.006491884533010308,0.42707275092762936,0.007594514674336718,0.009495754438904491,-0.06440920288868224
3.927882194519043,10.928198131006383,0.015795973764481115,2.4986659679185106,3.602026454670042,0.03984812952395834,8.107028356924474e-05,-0.008978777287506942,0.4581969308403293,0.0071439713743128115,0.010770179489815845,0.06372125254556771
3.94797682762146,11.000235877963334,0.016686491438127764,2.498668988743816,3.6016996624118125,0.04929680855005399,0.0002195544647881954,-0.02355270345135838,0.4861495835790148,0.0067066339749328316,0.01329157771463807,0.12606991124111122
3.967982769012451,11.0721565939126,0.017408713128671784,2.4986930157771376,3.5984971089859275,0.05035308938584696,0.0008098804294471171,-0.03722211289759308,0.5030753733239557,0.0061590147687980296,0.01350954202405008,0.010898215470600547
3.987945318222046,11.144118226118799,0.01851740581922353,2.498710409735556,3.597623586357047,0.06056512488238164,0.0009277601710372532,-0.049980060079167894,0.5177600088918984,0.005632436401682735,0.016250568211314764,0.13705130936323418
4.007908821105957,11.180042614258227,0.01898113261020233,2.4987324865099985,3.595439007985407,0.06120172290660326,0.0013362691268806646,-0.08551039576127938,0.5298542441909477,0.005053306280449176,0.016330348339026912,0.0039890063856073965
4.027886867523193,11.287851505607021,0.020938853638417174,2.498787205166522,3.5921453827378804,0.07323397548519785,0.0018334114495931909,-0.1274497882225717,0.4485951364922047,0.004396199395721191,0.01955174932226411,0.16107004916185996
4.04786229133606,11.359666273567909,0.022488006196262674,2.498824710389502,3.589201328074777,0.08142180773394407,0.0019150242901987437,-0.16647664978064866,0.3707523401834063,0.003770221718091699,0.0215987732984817,0.1023511988108794
4.067881107330322,11.431455565933089,0.024237773684459576,2.4988787299918815,3.5867753233963446,0.09024161164941272,0.0023406920531047156,-0.1985395853847089,0.30565754682881263,0.003094308877619867,0.023844210152338174,0.11227184269282375
4.087857246398926,11.503149345327225,0.026099527003466017,2.4989261193761028,3.5825036014004157,0.09572533254473571,0.0023961091438915597,-0.22824503785595138,0.24314050174643836,0.0024531294268001695,0.025189242552542623,0.06725162001022245
4.107918977737427,11.539033018916758,0.027284528079739603,2.4989536315997487,3.581988888098569,0.10402449671973453,0.0025018167273181684,-0.25717809681515397,0.1896859968433332,0.0018513580488631349,0.02729572559699367,0.10532415222255231
4.127913951873779,11.646473849663296,0.03081569147987668,2.499028880297593,3.576800856956182,0.11856875370971531,0.002527784572645204,-0.28418089435968674,0.132647026748952,0.0012849309397164107,0.03098879345363681,0.18465339283215698
4.147911787033081,11.717951346420456,0.03320990862154211,2.4990796567827713,3.5708665113918894,0.12067049655735097,0.0025480801693434692,-0.30887419441236813,0.0779072086298864,0.0007497870821486342,0.03130621655975885,0.015871155306101947
4.167905330657959,11.78943115061454,0.03613179930157033,2.4991267342324837,3.5676067767129536,0.13417790307073268,0.00245816367680668,-0.3273974348563329,0.032877041249251254,0.000286944344195137,0.0347965608261398,0.17451721331904757
4.188010215759277,11.860716662823663,0.038819020287262244,2.4991759253783177,3.5608887446149646,0.13440004969824615,0.002459497137125104,-0.3441082131825655,-0.010367192782953893,-0.00014919612360975775,0.034619866659652665,-0.008834708324356733
4.207921028137207,11.896375292813358,0.04047330748447049,2.4991981004767556,3.5591023433301845,0.14288571137105152,0.002386886117696038,-0.36921343470275864,-0.033899868827567445,-0.0005218109826702075,0.03682107453619121,0.11006039382692734
4.227898836135864,12.0030480648177,0.045045357835072256,2.4992680630741684,3.549590979819952,0.15011013798327533,0.00232920949734356,-0.4056383536153574,-0.06304203902447889,-0.0008602091864529727,0.0385285330234133,0.08537292436110455
4.2479681968688965,12.073956496535725,0.048033050789380013,2.4993144537240672,3.5411419402272983,0.14856477415225602,0.0023087980582038106,-0.43871544183492855,-0.09135715890795104,-0.0011774473628037515,0.03800377563813795,-0.0262378692637677
4.267882347106934,12.144797641366152,0.05136411038068495,2.4993599584448116,3.534884025171309,0.15596014365798014,0.0022780941987506614,-0.46508915316460514,-0.10343058473658463,-0.0014602402407157514,0.03996144768143983,0.09788360216509417
4.287891864776611,12.215400680495495,0.05446181186607655,2.4994052103759348,3.5253409196947656,0.15376907571447823,0.0022462192748012645,-0.48878086828431117,-0.1157090718118916,-0.0017241390484156321,0.03926910640693926,-0.03461706372502871
4.307964086532593,12.250713605788583,0.05619575908877928,2.499428930652821,3.5225686318066844,0.15823177035541064,0.002268096298449514,-0.5197121021902087,-0.1195238594204864,-0.001966693216722187,0.04046773170374962,0.05993126484051814
4.327887535095215,12.356253543900609,0.06104168459315863,2.499498989492796,3.5096205060069523,0.158897205484382,0.0022922856614395453,-0.531384865070423,-0.11799290513136788,-0.002208339930202997,0.04056603271056325,0.004915050340681404
4.347878456115723,12.426338994716533,0.06419606415875292,2.499544378325955,3.498892028073095,0.15654133945742582,0.0022458518164070536,-0.5411501447675887,-0.11781565911980112,-0.002432098374162941,0.039972456284243396,-0.029678821315992643
4.367911338806152,12.496308051065048,0.06742975847057107,2.499594896148842,3.490327025499812,0.15703425499593118,0.0023502948923611157,-0.5519226374015633,-0.1270857425984687,-0.002665211154559289,0.040176227757038774,0.010188573639768883
4.387937068939209,12.566003587080793,0.07054438427846861,2.4996413543839466,3.4791971846473766,0.15439582675618774,0.002294812727321265,-0.5607411364693338,-0.13683507817832102,-0.002879985771245976,0.039525972182268276,-0.03251277873852487
4.410738468170166,12.600796639531694,0.07211455751952596,2.4996686219959052,3.4743064309244396,0.15402168378327316,0.002391670855437395,-0.5673424862174627,-0.12416583047451729,-0.0030966693691225587,0.03949110439277792,-0.001743389474517798
4.428110122680664,12.73588058152643,0.07803579045163819,2.4997662133071503,3.45287953343778,0.14951103543940877,0.002436624075215341,-0.5264835630640546,-0.09529076443461458,-0.0033270698040939496,0.03839009671792537,-0.055050383742627496
4.448192358016968,12.804835523415042,0.08100880998105198,2.499814266001618,3.4427457977034366,0.14788264584013208,0.002367942942110584,-0.48714043794988576,-0.06777177660081622,-0.003537806715872795,0.038071319573026674,-0.015938857244934823
4.46791410446167,12.839201403758493,0.0824424781588331,2.4998413134810376,3.436988050149472,0.14607563078976313,0.0024282863106240555,-0.4518689707646413,-0.04869671403768608,-0.003740543394254337,0.03766915843011853,-0.020108057145407088
4.487957715988159,12.90785307673861,0.08535548306055729,2.499889118526234,3.4282924528251666,0.14528578122822422,0.0023516050970104414,-0.41790709562148143,-0.030419880391228008,-0.003924484903440984,0.03752652208809204,-0.0071318171013246
4.507893085479736,12.941989268849413,0.08670030485629662,2.4999139938752273,3.420762289413707,0.14206306598002158,0.0023507966408443234,-0.3802805035982944,-0.009743170162116689,-0.004087384024287465,0.03671930863561057,-0.0403606726240735
4.52788519859314,13.04425624158071,0.09081699059744054,2.499982515100043,3.4044503111326456,0.13798651933931555,0.0022193634635472343,-0.33034587053699316,0.021675289101143125,-0.00421863787665928,0.03577120137502421,-0.04740536302931808
4.54782509803772,13.112282389941265,0.09358305793359233,2.5000260506660563,3.3983231513818084,0.1387187837714395,0.002133807074508876,-0.28275714387872236,0.05124683827693404,-0.004334463638634296,0.03601914024568176,0.012396943532877458
4.567908525466919,13.179883842933881,0.0961358579421869,2.5000657252367207,3.3850181443347696,0.13411537558980027,0.0019903581587498963,-0.26275757511044523,0.07997182727569044,-0.004405215313747883,0.03484954135104612,-0.05847994473178186
4.58800482749939,13.247532969678403,0.09883598902558424,2.500104647249075,3.3799600002077743,0.1359877813627749,0.0019016476829496031,-0.24311653687516627,0.10698706599934721,-0.004463839056203991,0.03545155641102715,0.030100752999051572
4.608039855957031,13.281116507126368,0.10003578507929298,2.500121563335686,3.3719330395033382,0.13261291322950186,0.0018036226212266005,-0.2264417077455673,0.13881415673915756,-0.004489506712670316,0.03452977781675726,-0.046088929713494764
4.627900123596191,13.381994393682081,0.10388942867489637,2.500172356384946,3.3600878553958013,0.13145960625173952,0.00163352704729498,-0.23299145285782483,0.14078954195470306,-0.004483373518473778,0.034321505773728056,-0.010413602151460033
4.647939205169678,13.44914920375016,0.10654676791230715,2.5002041310451135,3.3553771504225853,0.13427144462987112,0.0015439849720347253,-0.23779277676555893,0.13992918701750745,-0.00446957673397461,0.035054238906929935,0.03663665666009397
4.667853116989136,13.516041952321654,0.10902682208631857,2.500233663936825,3.3468501995209703,0.1312331332916081,0.0014476945510023846,-0.2203985527775595,0.11594090250022378,-0.004434988831157269,0.03420368431642462,-0.042527729525265734
4.688018321990967,13.582936026406447,0.11167302900681896,2.50026173343375,3.3426145304861197,0.1333046369740351,0.0013593901951780621,-0.20320228226498713,0.09106507355877504,-0.004394476063263757,0.03483166001435967,0.031398784896752296
4.707880973815918,13.616291176433942,0.11292891055362177,2.500275799080878,3.3387511242420485,0.13188486051302736,0.0013366065935237728,-0.2188903575606379,0.07504785221948887,-0.004350616456100615,0.034381514404057345,-0.02250728051511608
4.727891683578491,13.716307549851233,0.11692398136064704,2.5003148986814363,3.3307936161003697,0.1348012225750717,0.0012341290610097455,-0.23266146957409414,0.12892810109631866,-0.004295701532745282,0.03519386422727244,0.04061749116075486
4.747913837432861,13.782876043491317,0.1196491888534627,2.5003387260137857,3.3260146065786476,0.13788619694863846,0.001148802507117196,-0.24500446946634283,0.17893070178410425,-0.004236204449935174,0.03590270522249295,0.035442049761025274
4.767851114273071,13.84934258054051,0.12240536221204934,2.5003626288827223,3.321134828799538,0.140319169402228,0.0011106917176906938,-0.24956570465378053,0.19562338189300743,-0.004174333534552728,0.03649254944017599,0.029492210884152215
4.787957191467285,13.915715111809732,0.1252519050941204,2.5003840121782486,3.3161065418412092,0.14438557806299196,0.0010278575413500755,-0.25309306663265435,0.21076183746785707,-0.0041084242799549996,0.0375371970103604,0.05223237850922047
4.807929277420044,13.948902020722425,0.12660813904025645,2.5003958471336674,3.314688671578886,0.1438451266339589,0.0010385664966809718,-0.2560641310126626,0.23199979254330003,-0.004049960224271114,0.0372467333773443,-0.014523181650805128
4.827873229980469,14.048281993954637,0.1309143566182587,2.50042716817541,3.30849733512862,0.1477798941149283,0.0009744444937555135,-0.26577232514276433,0.25539327602535583,-0.003989420486389189,0.03829066021779237,0.05219634202240364
4.84794020652771,14.114398212412489,0.1339224787127947,2.5004458634154276,3.303097027594908,0.15310272022102453,0.0008952944520179299,-0.27401789036612895,0.2765157189569552,-0.003924939880969107,0.03956478760461968,0.06370636934136531
4.8679304122924805,14.18050131679852,0.1369014883128501,2.500465960130875,3.299961396209909,0.15541027119181478,0.0008911919630264537,-0.2850208188383511,0.2949244361942704,-0.003866181838841295,0.0400268100196608,0.023101120752055948
4.887854099273682,14.246442873152516,0.14006980431015584,2.5004830148483337,3.2941619559845234,0.16147594504563076,0.0008144887286592344,-0.2947063175365661,0.3113102842393306,-0.0038035006732740745,0.04161974459767892,0.07964672890090618
4.9079430103302,14.279441970014895,0.14163423143842965,2.500492836944932,3.293095879958286,0.16295718238778334,0.0008303278165068725,-0.31792127616489396,0.33499591043181576,-0.003748698751549355,0.04178952921617052,0.008489230924579871
4.927891254425049,14.378185424007276,0.1466058909976165,2.500517934459127,3.2861073695922456,0.17097840174732717,0.0007722658204384658,-0.3378285044437817,0.3221746611219402,-0.0036913872189661837,0.04387040906419859,0.1040439924014036
4.947980642318726,14.443838741615682,0.1500890177145665,2.5005326455112318,3.2791622287877353,0.17729010962450079,0.0006990431827501567,-0.35647758226242,0.30892694309329255,-0.003630251931086319,0.04526486530034646,0.06972281180739337
4.968022584915161,14.509516435566288,0.1536449643960292,2.5005489245546353,3.2761613329184027,0.18204754071105012,0.0007011012871052799,-0.3655705652596631,0.2691996240494929,-0.0035750859016653097,0.04632956523458365,0.053234996711859495
4.988116025924683,14.574965982000588,0.1573371745524759,2.5005622354333243,3.2687656672612118,0.18704556952343965,0.0006301832246222882,-0.37386375025266605,0.2308277116713304,-0.0035160955871084186,0.047555403179237565,0.0612918972326959
5.007943630218506,14.607748787147253,0.15925656747100828,2.500569533749274,3.2682092765675606,0.19021721145373352,0.0006263752027684056,-0.37810909913411733,0.190869551777835,-0.0034591635901251826,0.048167667415160764,0.030613211796159945
5.027872323989868,14.705725100244576,0.1651807159365773,2.500586382473854,3.2596104419493903,0.19934565089804077,0.0005088627031267508,-0.38609236613942105,0.13438684017324418,-0.0033832099084110693,0.05045537509418585,0.1143853839512543
5.047919988632202,14.770839607383051,0.16919088483867142,2.5005958882639203,3.2518169181633714,0.20149253943435408,0.0004419770564182793,-0.3930988062414656,0.08077593439167735,-0.003304985929779784,0.05064616364237784,0.009539427409599455
5.067898988723755,14.83591278198818,0.17352033586009058,2.5006009397322644,3.246579329283112,0.21011670349042463,0.00029341800949699964,-0.4171763296861469,0.043853020795420555,-0.003195081004396572,0.05287990849647928,0.11168724270507191
5.087884187698364,14.900759429609089,0.17772906856366055,2.5006061763961314,3.238011919408126,0.2106394450743168,0.00023061422582459679,-0.43923105577624216,0.008715911008539069,-0.00308532735556802,0.05274066405014821,-0.0069622223165533015
5.107867002487183,14.93319008025627,0.1800584570886352,2.5006052773576997,3.2355243378777216,0.21690177184480586,0.00011386860314703213,-0.4607929987820523,-0.0070446882743600584,-0.0029543561260712936,0.05434243328848076,0.08008846191662755
5.127864122390747,15.030149356566987,0.18678000041188889,2.5006047589292306,3.2244008961297506,0.22287719348321236,-4.590950203768243e-05,-0.4844317049168689,0.002846235955424293,-0.0027970456710787656,0.05563991367084986,0.06487401911845492
5.147902727127075,15.094539035899935,0.1912387181736335,2.500603291627215,3.214496459103368,0.22302391541245617,-0.00010030899733529973,-0.5056060851593152,0.01164651951578396,-0.0026435344919470524,0.05540883682933817,-0.01155384207558452
5.1678550243377686,15.158885433509475,0.1959070477443116,2.500599017323471,3.207938923137015,0.22811082650196612,-0.0001891459339923248,-0.553889795612991,0.017863321865977447,-0.0024807672284982343,0.05676281301641861,0.06769880935402206
5.188060998916626,15.222930415864381,0.2004732097981362,2.500594748867271,3.196411708782028,0.2285233379960369,-0.00023717278431748478,-0.5981723872267446,0.023251394193870824,-0.002322695792726265,0.0567462384331332,-0.0008287291642705696
5.20792555809021,15.254982711713737,0.20281552005377687,2.5005927226760445,3.1934106051975824,0.2305113043887914,-0.0002433364158863834,-0.6477802101356416,0.0532630692898994,-0.002177299440934953,0.05718886637940335,0.02213139731350733
5.227893114089966,15.350665572360866,0.2097574429424072,2.5005859883161152,3.1785187266440804,0.2322894597578794,-0.00026092608234511703,-0.6957955523244586,0.07810288372144701,-0.002040520753818106,0.05758294485748561,0.01970392390411302
5.247875213623047,15.414093807585528,0.21442040675046298,2.5005803706161807,3.1641594185934117,0.23408294518886819,-0.00030040081003305304,-0.7394104401679391,0.10091090096182882,-0.001907589726756118,0.05797933897601526,0.019819705926482634
5.267895221710205,15.477498949295635,0.21906253513584675,2.5005785663774853,3.155815937028552,0.23467977670467602,-0.00021779952532673588,-0.7814264336487654,0.12748010518841676,-0.0018067474639622456,0.0580882417008306,0.0054451362407670345
5.2879509925842285,15.54045638043101,0.2237832847164912,2.500573855659784,3.139800330548954,0.2374762190299214,-0.00025294280323751825,-0.8194817515845726,0.15179226929817977,-0.0017079149238038705,0.058985904450980176,0.04488313750747874
5.307880878448486,15.571993000706389,0.22608796325472566,2.5005756376498605,3.1363272801788975,0.23692887330542434,-0.00014181603077822278,-0.8616844398184242,0.1741330137641909,-0.0016451839981673488,0.058614450451530686,-0.01857269997247446
5.327863693237305,15.66588176964659,0.23316143092340857,2.500575781098061,3.1151609052883,0.23912701529690372,-4.260795305648312e-05,-0.9342141667757775,0.19944947857944106,-0.0016132698243877905,0.05937457582313499,0.03800626858021516
5.347961664199829,15.727993611987197,0.23798543307221787,2.5005746085121303,3.095801657398991,0.24334989120769054,-7.453766604702162e-05,-1.0007179009382154,0.2224578495499404,-0.0015793790209303478,0.0604656704090103,0.05455472929376537
5.367851734161377,15.789990714075728,0.24271571458550434,2.5005824707688853,3.0823858750176427,0.24317443713973283,0.00014275105148265043,-1.0695618818176635,0.2152319354222354,-0.0016014751081852106,0.06037117243287593,-0.004724898806718336
5.388044834136963,15.85142021142153,0.24762165054564253,2.5005850042910014,3.06035310569812,0.24738727948520572,0.00011054537733992277,-1.1327902719761533,0.20566943157085926,-0.0016182126155218218,0.06184505127944817,0.07369394232861204
5.407905340194702,15.882185513391985,0.25000110385862634,2.500594981885488,3.0546552926853336,0.24650639457504367,0.00035474522840973856,-1.2037922326653567,0.20166647636468543,-0.0016918076518293184,0.06131743210156948,-0.026380958893934547
5.427903890609741,15.973550813833933,0.25743164621279907,2.500615900052118,3.025210387385175,0.25095463685639113,0.0006218615280135854,-1.3187364335048064,0.190286409025582,-0.0018290998307855398,0.06292774209047236,0.08051549944514402
5.448008060455322,16.0337840881972,0.2624880561031285,2.5006279629648183,2.9977655886155823,0.254649649680088,0.0005840156051756949,-1.4241782364099649,0.17927547617223374,-0.0019533465398151044,0.0639331587889087,0.050270834921817276
5.467880964279175,16.093889648962453,0.2675938082788232,2.5006599454928797,2.979802333133666,0.2578980273181777,0.0010750419901539422,-1.496847929901554,0.19147362504083232,-0.0021870844426710207,0.06491056065598233,0.0488700933536812
5.487881660461426,16.153181817477456,0.27279071326924986,2.5006809943272548,2.9491946147690893,0.26182227804349373,0.0010291283553428105,-1.562821778500507,0.20041714844770653,-0.0024010203739844886,0.06640118003747864,0.07453096907481527
5.507977247238159,16.182911950635106,0.2754190452149491,2.5007096194810776,2.9418463466785125,0.26398837053313606,0.0015369664413625028,-1.639680048645598,0.22325356989591078,-0.002716025354888619,0.06672693202335944,0.016287599294040334
5.527888536453247,16.270752067826965,0.28340473275878425,2.5007753444284164,2.900985445528696,0.26955734949214927,0.0020488582693374714,-1.7334977359636623,0.21254135307762076,-0.003142001317112458,0.06888020137485995,0.10766346757502543
5.54790472984314,16.328419282805765,0.2888375760728658,2.5008156664886827,2.865453894334499,0.2736847869340918,0.0019820403540971154,-1.8181490141789507,0.1998840217852895,-0.003534236159770364,0.07017206318119174,0.06459309031658922
5.567843437194824,16.385784733466448,0.2943029649204084,2.500888472732896,2.838843386143646,0.2766033779682075,0.0027625465298405623,-1.9058014221762976,0.2003349302618826,-0.004082144761714359,0.07130364831805158,0.056579256842992365
5.588061571121216,16.442175076635806,0.2998749796260032,2.500942872877586,2.7999305900424067,0.2805896471090948,0.0026757857693209025,-1.9839077645908223,0.19780290016290444,-0.004586813474468673,0.07314571242590295,0.09210320539256855
5.607893705368042,16.47034801770151,0.3026915283238406,2.5009948230528347,2.7875566377135663,0.28272430536493154,0.0033575180797926515,-2.0114210357639277,0.20999434615307372,-0.005202080021872196,0.07354477728886222,0.019953243147963207
5.627884864807129,16.553343120051515,0.31128541019168304,2.5011213570278366,2.7347540372151076,0.2905567654768847,0.004001518178976104,-2.018035370187284,0.3364262535672638,-0.00594589211605112,0.07689768078256254,0.16764517468501605
5.647938013076782,16.607634382903026,0.31717163510649526,2.5012001515976086,2.6943654810708066,0.2984456848352145,0.003875656887105463,-2.0200676453521242,0.4504192460934287,-0.006630489818241555,0.07935069680211715,0.12265080097773051
5.667895317077637,16.66132254635074,0.32308330643168903,2.501312827766067,2.6580489779335585,0.30378493483029717,0.004612461074136239,-2.0798850504323556,0.5455333709249911,-0.00742907785820257,0.08144116927451694,0.10452362361998979
5.687954425811768,16.714064007435784,0.3292739068503006,2.501403541225291,2.6159273851033307,0.31555589518642624,0.0044564416333397845,-2.1308127112770467,0.6297746414216322,-0.00816206955741028,0.08579186609995171,0.21753484127173817
5.707958698272705,16.740147740386185,0.33217916293617855,2.501461276892059,2.594767614910245,0.31427265721963266,0.004747773090966402,-2.2113933381055313,0.6987626772611827,-0.008876979557564032,0.085010563783261,-0.039065115834535646
5.7278501987457275,16.81708210191927,0.3415468597421539,2.5016134241143337,2.531165478552699,0.32565544186854634,0.004876071183961521,-2.1850375400101867,0.8288812349239352,-0.00958965322080641,0.0905461996714485,0.27678179440937534
5.74799656867981,16.8672703556084,0.34823371620361093,2.5017089833357913,2.4877606541236292,0.3434172218415716,0.004677690620566065,-2.1548105862012394,0.9449925738300179,-0.010237783037328443,0.09599101271791,0.2722406523230747
5.767893552780151,16.916647530641427,0.35471951796061335,2.5018293134033387,2.446802569340771,0.3481801911861972,0.0051800994923361845,-2.0043016792761743,0.9833458047532856,-0.01094247878042563,0.09777806608323525,0.08935266826626265
5.787941217422485,16.965192498934858,0.3618819659282269,2.5019306832719765,2.4081788833131106,0.368167088416422,0.004954761205467478,-1.858913272389108,1.0140942096026722,-0.011580357291804346,0.10511644936704068,0.3669191641902714
5.807986736297607,16.989022962504496,0.365264627882784,2.5019870231023207,2.3869455803943076,0.3697976897103805,0.004990169078217463,-1.5794446712784083,1.164384851573625,-0.012142529358423658,0.10459800257377339,-0.025922339663364546
5.827865839004517,17.059335208943626,0.37654287381354634,2.5021055734939344,2.3234495919136897,0.39614339262877046,0.0038113155481442804,-1.4257862558936545,1.3076984054039131,-0.012387102910299307,0.11566062426509083,0.5531310845658721
5.847913026809692,17.105528987213347,0.3847360110165508,2.5021793081390618,2.2964204663795695,0.4235932684688094,0.0035614704911144756,-1.2781150334944358,1.4345878489564106,-0.012590664363561738,0.12229092608288505,0.3315150908897113
5.867906093597412,17.150037482166947,0.39292115302255765,2.502147180658996,2.242515664765114,0.4395300252438665,0.0007192081468039684,-1.1431073014494664,1.6630515750327142,-0.012038061918380832,0.1285068712493267,0.31079725832208194
5.888000011444092,17.194667864869295,0.4020581882938123,2.5021591935745073,2.220952047829932,0.47484163426669823,0.0004838937278869175,-1.014272440683289,1.86350392218295,-0.011494964987636865,0.13901536560452765,0.525424717760048
5.90791130065918,17.216016674983884,0.40638281352089095,2.5020961096831025,2.185966818122595,0.47925323353087973,-0.001501043641387532,-1.256219796223042,1.9435496088737474,-0.010492427010967994,0.13943158578588477,0.020811009067855935
5.927880048751831,17.28046786716304,0.42094989468024513,2.5020074778881196,2.1321480678221265,0.5177525795790793,-0.0028399510219001968,-1.40429192582953,1.8787306621334265,-0.00923848718996362,0.15452439792299755,0.7546406068556388
5.947886943817139,17.322820780225324,0.4316763553797646,2.501948911827595,2.1026949498117613,0.5546763929685685,-0.0030126706076464083,-1.5387839970912578,1.8136020351920024,-0.00804314113456283,0.1628799915596355,0.41777968183189795
5.967885494232178,17.364498845008747,0.44257333300656815,2.5018979952882705,2.070740820837482,0.5774842698680585,-0.002779798058774176,-1.6792509051524311,1.6811956511886632,-0.00702326193543003,0.16954366461470682,0.3331836527535659
5.988649845123291,17.405569075139912,0.4544505499355757,2.5018410602623864,2.0358557195507423,0.6098040283673715,-0.0029104647813761376,-1.807197767266421,1.551177024896666,-0.006051321751219372,0.1799622093604083,0.5209272372850737
6.007860898971558,17.42617050716027,0.4607243269509169,2.5018300572944296,2.0266682196178327,0.6275768858094608,-0.0024690301367215205,-1.9122695786301651,1.406211020444339,-0.005291641056432225,0.18222197262453932,0.11298816320655103
6.027888774871826,17.48661411804734,0.48067971508265556,2.5017509241086953,1.9827539421444282,0.6829162069168196,-0.00274281779717845,-2.019630901660999,1.235341308758908,-0.004521124954672778,0.201201952595917,0.948998998568884
6.047895669937134,17.525858730938978,0.4945740054616125,2.5016952130450756,1.9413905091950845,0.7059625057710225,-0.0028258432026702363,-2.114687413581529,1.0702421011693641,-0.0037875042019423445,0.20430918182840596,0.15536146162444808
6.067836046218872,17.564954689581636,0.5099018700752339,2.5016011654891437,1.91561021498265,0.7515106977352471,-0.003854524363080423,-2.1971014646071483,0.9178111525977295,-0.0028568088687247737,0.21865442382724432,0.7172620999419177
6.08791708946228,17.6028225480348,0.5251057452040001,2.501523563172664,1.8709386959924632,0.7683860706190223,-0.003902772065251816,-2.2681866365557766,0.770586290646326,-0.0019762253899778225,0.22260099633305463,0.19732862529051598
6.107858657836914,17.62185334811868,0.5335805045531984,2.5014557091997514,1.860066620817708,0.7964994062067797,-0.004728133435282629,-2.3296876396321027,0.6506226325577832,-0.0009760718667186004,0.22967423387238606,0.35366187696657114
6.127856254577637,17.677070746504373,0.5586122557607429,2.5012900687220236,1.8034088324169997,0.8395830096104886,-0.00540181507961601,-2.320196085819295,0.600251753251581,0.00013098431580256062,0.24450341750927818,0.7414591818446059
6.147928953170776,17.71267580009894,0.5755206895800017,2.5011821290618648,1.7571469827496853,0.8510978798144866,-0.005388684005105007,-2.3050620970707696,0.5515035744196243,0.0011710884743504736,0.24609839337938322,0.0797487935052521
6.167891263961792,17.747888650407504,0.5937344757324364,2.5010489282232777,1.7235282552595776,0.8887030963541235,-0.005987165581730961,-2.326935615545099,0.5610266927920518,0.002266672277978685,0.2595688424947076,0.6735224557662178
6.187971115112305,17.7818928005222,0.6116212458017487,2.5009297077524875,1.6768424242367612,0.8999968837010007,-0.005931464311482844,-2.340239217719687,0.5679198583428687,0.003291854733753609,0.262810712036166,0.1620934770729221
6.207901239395142,17.798742614191124,0.62117002213802,2.500855900568592,1.658597743171619,0.9203174833371649,-0.006303759092337858,-2.379477597687345,0.5901880858344598,0.004300296749254925,0.26870623036313557,0.29477591634847755
6.227899074554443,17.847575833096872,0.6493677097327966,2.5006602208262585,1.590953695211657,0.9474436458734705,-0.00638597764932309,-2.4221379110491092,0.6590318577731363,0.005276487046381417,0.28187914987326934,0.6586459755066887
6.2478578090667725,17.878908249315433,0.6684526396869986,2.500533618192929,1.5421864922080344,0.9612563108983533,-0.006271261439544007,-2.4525740456883143,0.7211230263632311,0.006183787261779593,0.28559063462992906,0.1855742378329861
6.26785683631897,17.909454634018108,0.6879935848151318,2.50041909175453,1.497740396786382,0.9796522490950752,-0.005842650874583924,-2.4806333865278463,0.7784651967031375,0.00689673951815117,0.295266193195046,0.4837779282558463
6.288012981414795,17.938912034944074,0.7077458373560982,2.500303662821482,1.4479453592736138,0.9957436626628123,-0.0056980515394391825,-2.4969400387361507,0.8296650103567877,0.007554029224205722,0.3028692046610497,0.3801505733001864
6.307945489883423,17.953386934483184,0.717671277580456,2.5002697874413484,1.4258569205741276,1.0021079618616757,-0.004950593727694908,-2.5572267425831776,0.86892872917062,0.007946430529145078,0.3039057968262662,0.051829608260822724
6.327934980392456,17.995136188258204,0.7479470464634455,2.5001523308625893,1.352165660852041,1.0231465882446817,-0.003922713306355246,-2.6200664985675646,0.883453894356985,0.008075284285104775,0.32052693822404876,0.8310570698891295
6.347914457321167,18.02165204648688,0.7685874819508641,2.500075499158722,1.2992603442833544,1.0409350516774043,-0.0037600996151578824,-2.6680187941737357,0.8948824727454749,0.008182533791898481,0.3253069887158442,0.2390025245897709
6.36786150932312,18.047294072786965,0.7893237059422481,2.500045882265617,1.2501515011452178,1.0528047695261336,-0.002490926411660131,-2.733952564366847,0.945372154266496,0.007961224290126117,0.3349998732482282,0.4846442266192019
6.387876987457275,18.07174671949658,0.8105719503994653,2.4999976412441507,1.1949467016930573,1.072168614737055,-0.0023339123295386646,-2.7839004836980368,0.9900559654431039,0.007740247552788955,0.3458658411796476,0.5432983965709681
6.4078309535980225,18.08369688433333,0.8211728962036091,2.500007553157635,1.170613151867295,1.0778006017045685,-0.001310953529782722,-2.8400641463138308,1.0668415554051878,0.007282118624649806,0.34590909545451076,0.002162713743159017
6.427850961685181,18.11771015490906,0.8537368632984539,2.50000932452312,1.0896362798201276,1.1038957838960555,-6.727785757239389e-06,-2.920439172949998,1.232641260425829,0.006548078659688495,0.368352792971292,1.1221848758390607
6.44789719581604,18.138914422966714,0.8760716070908734,2.5000104523947146,1.030588257440871,1.130081198563009,0.0001171843236871493,-2.981129101487624,1.3834282597848344,0.005848880428273639,0.3741730483678509,0.29101276982794744
6.4679107666015625,18.159186337229595,0.8983601651985973,2.5000781069335223,0.9765758640589571,1.1439918167152288,0.0018521691721056063,-3.083633573067019,1.5972760842982936,0.004783564696717612,0.38638531644099583,0.6106134036572453
6.4879395961761475,18.178095424532465,0.9215726985215845,2.500116038958401,0.9140662443898719,1.17790692519999,0.0019376783085028769,-3.1636308566784876,1.790907376038662,0.003777041245170446,0.40181943736877335,0.7717060463888759
6.507870674133301,18.187282760564678,0.9328426066002679,2.500192349115077,0.888627239536551,1.1812549938512136,0.0036207817093418123,-3.1196527231686795,2.1195828264431693,0.0024556334933239546,0.39909376200496016,-0.13628376819065924
6.527886390686035,18.21272923616189,0.9683047711055802,2.5003765233266275,0.8002430741790088,1.2200450589153318,0.005839641452756765,-3.107525969041428,2.3729166488342455,0.0006740120580267402,0.42906662927999983,1.4986433637519836
6.547889471054077,18.228114177274634,0.9931958474170948,2.5004933377730505,0.7383429871912643,1.2698208517674023,0.005836235923918627,-3.0799492416604215,2.6004115959800544,-0.000996209961627278,0.4335950923873715,0.22642315536858248
6.567913770675659,18.24231897261374,1.0175732687064247,2.500728184779241,0.6782967618034311,1.28346109722992,0.008730699762864159,-2.985593695723785,2.6440682910162443,-0.00323121711632081,0.4481053176906822,0.7255112651655349
6.588017463684082,18.255294539812382,1.0437736990071425,2.500902010920965,0.6196050083952637,1.3366932026817417,0.008644955493939418,-2.882084245617755,2.677453950024731,-0.005318948779165603,0.4611516001248317,0.6523141217074757
6.607905149459839,18.261194741220276,1.056371114202514,2.5010569811703927,0.5868885208207814,1.338536330982959,0.010479026994372944,-2.795110237539753,2.6987469767517833,-0.007632125051789687,0.46037900598133863,-0.038629707174653305
6.627923488616943,18.277193253294723,1.0971295155452638,2.501396890212654,0.49480466340964147,1.4000107757471845,0.01094817178680664,-2.5599400830731023,2.3694962844969103,-0.009913203794510531,0.4891683950254171,1.439469452203923
6.647884845733643,18.286592652509576,1.1255822511326643,2.501613727117375,0.4458936156636663,1.4442032505660827,0.010728458733850865,-2.3324306390275087,2.051633404066738,-0.012031254038249393,0.48254466315747546,-0.33118659339708145
6.66786527633667,18.29426384135802,1.1548901285978017,2.501752671188803,0.3809018623568553,1.4860525288033704,0.008251990156585473,-2.0735522789364755,1.7495302472643262,-0.013293615738876881,0.5048668051808138,1.1161071011669188
6.687828540802002,18.30148391155192,1.184941490620391,2.501914973415272,0.34193383336003363,1.518112951466327,0.00797437699246673,-1.8249460648046834,1.458310579657047,-0.014450309036883338,0.49860651700170955,-0.3130144089552145
6.707961797714233,18.304060091142883,1.2009083725811405,2.501809634847815,0.3043772298789773,1.5514535634482824,0.0023567887157533622,-1.5497733125670334,1.200974185031537,-0.014029652225653659,0.5114903928818868,0.6441937940088627
6.727959156036377,18.311447301983357,1.2491545365145278,2.5016104965147856,0.2299730941602976,1.6188652694917827,-0.0056807855936158135,-1.2971877961808538,0.9665721215469123,-0.01161950506755549,0.5169790928596805,0.27443499888968326
6.747920036315918,18.315803594819815,1.2817099038651116,2.5014947111634176,0.2064602141753093,1.6359150340664386,-0.005890142129417523,-1.0559765096181364,0.7396409675057435,-0.00933723581646962,0.5132422297443688,-0.18684315576558141
6.7678961753845215,18.318139326503815,1.3162834160533894,2.5009374524172907,0.1463079297605721,1.6906924627963544,-0.01693590033170489,-0.975930850841602,0.4229595859487571,-0.004455647182444782,0.5273452407015835,0.7051505478607334
6.7879297733306885,18.32087570098935,1.3501615748234974,2.500598153838113,0.1276006867652528,1.696122957061185,-0.016978674693966803,-0.8945815307951449,0.12281649442801405,0.00012933156013396493,0.5175488156606485,-0.48982125204675153
6.807897090911865,18.321161341297504,1.3682644142118725,2.500164238254419,0.09172590075069996,1.7264441005400593,-0.024409354672151173,-0.9620106393915756,-0.2704864714130159,0.0060941642248212346,0.5298229253214037,0.6137054830377631
6.827940225601196,18.32284085775117,1.421406060554746,2.4992108262424932,0.04460458344458909,1.758316294710599,-0.030444987924420203,-1.0705391412037766,-0.5411097504774139,0.0131854967412159,0.523478405132038,-0.3172260094682855
6.847946405410767,18.323512400363306,1.4564468282906797,2.4986050127989454,0.022240650757669955,1.7449052901561566,-0.03011428294372597,-1.1632544087015906,-0.7976711941481247,0.01980772411386763,0.5267498764062202,0.16357356370910736
6.868016958236694,18.323493456212848,1.493389106436669,2.4977755928214447,-0.005525117333489383,1.7819749054590164,-0.035103628131669326,-1.2137450158345802,-1.035851464754755,0.02702638634836919,0.5260160817544932,-0.036689732586348
6.8879406452178955,18.32313746106337,1.5288061993766187,2.4970793814955443,-0.03020138080740973,1.7589832514539807,-0.034495122385586705,-1.251845873717109,-1.2611970320640395,0.033741206541239736,0.5281899150403939,0.1086916642950353
6.907960891723633,18.322989510644817,1.5476742613592889,2.496680552727896,-0.03600121700370446,1.7820623165026512,-0.035532285099746846,-1.2168691554807463,-1.5096324609343574,0.039936752282159,0.5241592130354946,-0.20153510024496502
6.927875757217407,18.321640633256948,1.601750877424779,2.4956426705367503,-0.06414587377882015,1.7710185584464486,-0.03387295818355104,-1.1480983515655556,-1.7811877490734542,0.04535925799677517,0.5264955834495555,0.11681852070304366
6.947918891906738,18.320132918061525,1.6367977573299575,2.494974623289245,-0.08638067546574144,1.732820739527577,-0.032915115757198084,-1.0746101802872685,-2.0358017418682457,0.050354675354598276,0.5228050162697064,-0.1845283589924529
6.967902183532715,18.318424626079587,1.6726608516015784,2.4944361314755867,-0.10171415689172836,1.7300130702904573,-0.0289435083792698,-0.9631712950832322,-2.2862873206913847,0.0538148101835909,0.5258266905987168,0.15108371645051744
6.987906217575073,18.316205212077584,1.7067880233351154,2.4938682388306765,-0.11985088139452696,1.681926752540045,-0.027835292867390563,-0.850264284409902,-2.519499220103548,0.05695392014224624,0.5245240119242545,-0.06513393372311604
7.007913589477539,18.314961616370184,1.7244351737691748,2.4937182161133817,-0.12720136456859873,1.6814549690601468,-0.023573055625510066,-0.6866175627975825,-2.7736349181709987,0.05860507237449631,0.5239836880453699,-0.027016193944229272
7.027860403060913,18.310657166825735,1.774627344520467,2.493202454125156,-0.15154592631909639,1.624547253167497,-0.01702127082774513,-0.5011388578166125,-2.9948956031808134,0.058603596926481615,0.5245152735598908,0.026579275726046347
7.0478761196136475,18.307538177401014,1.806505391205378,2.492873743567328,-0.15974862686906133,1.5625751291728842,-0.015850172358818953,-0.31982140596090974,-3.19958795849686,0.05848743580477288,0.5212241806000648,-0.1645546479912996
7.067899942398071,18.30390376924483,1.8382803007835202,2.492875925832679,-0.17438315054157683,1.5254573514328473,-0.00691847713247809,-0.12326190852038078,-3.385489461547923,0.05608841612888115,0.5256461657336091,0.2210992566772152
7.088024854660034,18.30040427047032,1.868100716491363,2.4927486160048686,-0.17493064713041456,1.4560150466306194,-0.005820371264682185,0.06756339387194728,-3.5562473274436543,0.05372873246451904,0.5218340879846024,-0.19060388745033574
7.107940912246704,18.298285114720514,1.8830409432855677,2.4929141020834105,-0.1837115728868208,1.4352754819141995,0.001007512452412334,0.21272955023255288,-3.6196701005696426,0.0498449431661618,0.5248688839109348,0.15173979631661894
7.1278955936431885,18.29233979955507,1.9248691363367068,2.493189338501451,-0.19092458498035478,1.3368711868413647,0.008807821089943532,0.3862684655308941,-3.6785885385575017,0.044359864661184016,0.5226342774235735,-0.11173032436806452
7.1478424072265625,18.288609856451572,1.9508672590036809,2.4933740139474954,-0.18150951394244147,1.2627675751667888,0.009642285828770898,0.5543332945810622,-3.7306427825314366,0.03912847596224697,0.5205840399446426,-0.10251187394654249
7.167904376983643,18.284377692877264,1.9754369504595468,2.4938813432403877,-0.1866741971267263,1.1880165287901994,0.01791294045543242,0.743725886383146,-3.8007327269837736,0.03230403010880346,0.5253631725842229,0.23895663197901484
7.188003301620483,18.28080521240093,1.998432884742105,2.494245625943011,-0.16996700493742065,1.111371361479811,0.01849378151543076,0.9257818079169059,-3.862397693154426,0.02583941636663534,0.5161759255838567,-0.4593623500183108
7.207976579666138,18.27868731521472,2.0091470144239967,2.494598121069495,-0.1722801941317609,1.0660699237568527,0.02338591545316983,1.1101170251630295,-3.915679202135484,0.0188241113435619,0.5285508228637879,0.6187448639965565
7.227886438369751,18.27344937652223,2.039085101613747,2.495455780664008,-0.15363384567420502,0.9401190556457528,0.028063683046906197,1.2899558685400296,-3.9398323199258836,0.011146920510891764,0.5162560381104062,-0.6147392376690819
7.2478742599487305,18.270646279831432,2.0570983545552775,2.496018794619772,-0.12610296154314432,0.8611555081734946,0.028213632146589472,1.461817290454985,-3.955055739047057,0.003922638483046291,0.5202554278497904,0.19996948696920924
7.267887592315674,18.267669918218346,2.0729167876500187,2.4967721108551615,-0.11410003197625974,0.7664618660178182,0.03283356106560944,1.6269839891601285,-3.936139771876702,-0.0037598865025140946,0.5180216754101292,-0.1116876219830587
7.287954330444336,18.26572393755064,2.0874603779711287,2.49742754209426,-0.07997326242989732,0.6879814514860992,0.03268556026606132,1.784418554139808,-3.9108575335187954,-0.010960841991076746,0.5125830852379725,-0.2719295086078377
7.307938575744629,18.264560827068124,2.093615217070187,2.4978437990326334,-0.07363023464589913,0.6336851065334818,0.035005953829798375,1.9243753171747897,-3.890495174466907,-0.01794870865611955,0.5162140022233075,0.181545849266751
7.327894449234009,18.262743101577627,2.110226316709447,2.4989392016133745,-0.028337383863856962,0.4985804308343085,0.03584284074917758,2.028029370837162,-3.8538618515489698,-0.02471368773098544,0.4966647895719096,-0.9774606325698931
7.347912549972534,18.262588616037892,2.1194298921046477,2.499650688001611,0.0132174648485411,0.42191892199647424,0.035284797068066844,2.126621846752476,-3.811321203394169,-0.031014170960190518,0.4839576273355899,-0.6353581118159868
7.367838621139526,18.262827721923944,2.1260267018869707,2.500358673073338,0.04569447987460629,0.3191958539287557,0.0346493372189703,2.2074329077639594,-3.7326844858909665,-0.03652474034899562,0.45725950870503684,-1.3349059315276524
7.387939214706421,18.264188266262604,2.131669501677837,2.5010440080268745,0.09061475935854632,0.2453579879016597,0.033867153593420685,2.2838763705666496,-3.6505281980080664,-0.041626266373901856,0.4258435821691391,-1.5707963267948966
7.4079039096832275,18.265064742313836,2.1331945768994127,2.5013351558736283,0.1101134611739996,0.18855946845304317,0.03201067926914009,2.3369704381372176,-3.52768908425487,-0.04566214246528645,0.39442765563324134,-1.5707963267948966
7.427889108657837,18.269351495971762,2.136423919010421,2.502178217793456,0.17896866889874982,0.059570223105069486,0.027728028845319823,2.3891385655904154,-3.4188116717675325,-0.048446781141875395,0.3630117290973436,-1.5707963267948966
7.447912931442261,18.273412011777207,2.136938908989374,2.502722916539354,0.2272459702251503,-0.007702397269615629,0.026733438371877243,2.438057658846476,-3.308165230270833,-0.050969104437047684,0.33159580256144583,-1.5707963267948966
7.46790885925293,18.278538399219833,2.1348492962033014,2.50302720210826,0.279026409211096,-0.10428223918802851,0.020148930124423186,2.478274395120424,-3.124311783945062,-0.05156312330231556,0.3001798760255481,-1.5707963267948966
7.487917423248291,18.284617119476366,2.1321508643332288,2.5034198351157158,0.32897011675252996,-0.16496020624427066,0.019112830862889587,2.5156259047967167,-2.944089126060641,-0.052025113951243825,0.2687639494896503,-1.5707963267948966
7.507845640182495,18.288182476591096,2.1294753315038473,2.503454819105105,0.35884564457954143,-0.21738270564832593,0.01418791196152857,2.5482846791580824,-2.688864183707383,-0.05115002863587691,0.23734802295375257,-1.5707963267948966
7.527898788452148,18.30027304512969,2.1206650388467025,2.5036814312819833,0.44042006890620267,-0.3263248677143907,0.007575731666087441,2.5385587092706636,-2.3641491474467973,-0.04878938076477598,0.20593209641785482,-1.5707963267948966
7.547883749008179,18.309588532623668,2.113686614419938,2.503823342576857,0.4910977814712557,-0.37048472119346537,0.006623077636452046,2.529289102218191,-2.0542882965795406,-0.046485427457655284,0.17451616988195706,-1.5707963267948966
7.567860841751099,18.320302383108316,2.1040914739265832,2.503608773784338,0.5507456878068713,-0.4540257034994893,-0.0029208942742316927,2.4237223092761,-1.7381479556526533,-0.041988009641303066,0.1431002433460593,-1.5707963267948966
7.587959289550781,18.331795355741683,2.0946836289643618,2.5035422479668212,0.5982230978311772,-0.4857566721101638,-0.003717371457447284,2.325176533834311,-1.4375066935719383,-0.037693137941653014,0.11168431681016155,-1.5707963267948966
7.607909917831421,18.33828099116513,2.088463968745526,2.503233386080222,0.63247521619119,-0.531938826866399,-0.011811783154466715,2.287052579579629,-0.8469962126024677,-0.03179473556932935,0.0802683902742638,-1.5707963267948966
7.6278345584869385,18.358844337793613,2.0704624758665555,2.5025712047176913,0.7168340664346303,-0.6014999720484375,-0.02111706989100718,2.2534577095448984,-0.3895348471933763,-0.024029865936260518,0.04885246373836605,-1.5707963267948966
7.6479339599609375,18.3736296612406,2.0583837405968692,2.5021445529055937,0.7615989363874197,-0.604936842850915,-0.021523697231817976,2.223653661197791,0.041488124943130415,-0.016705479325735576,0.017436537202468294,-1.5707963267948966
7.6678807735443115,18.390112154886197,2.043642943560636,2.501250097007051,0.8251323878447505,-0.6685915498258336,-0.03322163544463537,2.1205579258608256,0.31579509126116173,-0.007144356640224621,-0.01397938933342946,-1.5707963267948966
7.687959432601929,18.407032438422846,2.0303517964221105,2.5005848434879367,0.8665787142882547,-0.6596594840754278,-0.033273796424420916,2.0253795147434035,0.5749042181923029,0.00183187585392602,-0.04539531586932721,-1.5707963267948966
7.70788836479187,18.416294742436982,2.0220805231434973,2.500003079998077,0.8998701558954497,-0.6999750733021292,-0.04012417129152246,1.8932171190978957,0.7904375633816996,0.011540688949413994,-0.07681124240522497,-1.5707963267948966
7.7279486656188965,18.444748760263302,1.9999093981251683,2.498632817783122,0.9728772081168726,-0.7174135351963931,-0.04442177885353846,1.7480140821156256,0.9817527918288969,0.021674833369741152,-0.10822716894112272,-1.5707963267948966
7.747948408126831,18.46454679680062,1.9857696485511778,2.497749358872524,1.0064802989554162,-0.6959625103963442,-0.043892585101919485,1.6141657426952176,1.1614303961088097,0.031133226691410044,-0.13964309547702047,-1.5707963267948966
7.7679057121276855,18.48600575503034,1.9705025475482227,2.49675284677241,1.063651105927971,-0.7102515774461663,-0.04605141917354492,1.5409571158048756,1.234000357488937,0.04016717381064959,-0.17105902201291823,-1.5707963267948966
7.788020610809326,18.507582422955394,1.9565489254392905,2.4958404218483388,1.0937939171751494,-0.6848839339071916,-0.04516310224264458,1.4744237315221256,1.3020117169468324,0.04855872552641477,-0.20247494854881598,-1.5707963267948966
7.807969093322754,18.51926647357077,1.9491122306970703,2.4953876150122936,1.1260675079277755,-0.6922902909898707,-0.04457180540962697,1.2998245966971174,0.9821026722739162,0.0558150336929646,-0.23389087508471373,-1.5707963267948966
7.827913522720337,18.554296407672492,1.9286755088674352,2.4941316125888298,1.181607361539812,-0.6664619181922992,-0.04113172650250438,1.012401503711127,0.7321370815345559,0.06180702113378337,-0.2653068016206115,-1.5707963267948966
7.8479084968566895,18.578112970088892,1.915476806545484,2.4933217141239927,1.1991636531021104,-0.6541901666885305,-0.03983979467032818,0.746824584710226,0.49757525410317394,0.06730481872411535,-0.29672272815650924,-1.5707963267948966
7.867832899093628,18.603372829313084,1.9034397137897237,2.492646687830043,1.2405139149412303,-0.6192178188719086,-0.03590571859880862,0.43046968647729095,0.3513342094746519,0.07122311936627777,-0.328138654692407,-1.5707963267948966
7.887910842895508,18.62824931540099,1.8911163324997018,2.491943060056102,1.2461601898011267,-0.6135773722458836,-0.03444527626549494,0.13810888621627623,0.2142119075767864,0.07475804340557116,-0.35955458122830475,-1.5707963267948966
7.907866477966309,18.641712691054373,1.8861692562015218,2.4916190993173255,1.2749491369133388,-0.5756381402525633,-0.0332842426580662,0.004495827262635388,0.44995191623094577,0.07753681457078873,-0.3555042850969272,0.20251480656887644
7.927874803543091,18.681173715294186,1.8702158726962383,2.4906414069157536,1.3086467267185296,-0.5301457482254046,-0.03132831057782674,-0.06755820252309121,0.5923914987727632,0.0797984192405245,-0.3265207010296467,1.449179203364026
7.947910785675049,18.707328708526145,1.8597405351384209,2.4900309361795125,1.3066372661797747,-0.5169395926279496,-0.029712219404764956,-0.13216015498836242,0.7269186413855694,0.08176164745892807,-0.32682790537295503,-0.015360217165416579
7.967889070510864,18.734763907811978,1.850517431446901,2.4894058656674907,1.3354167331894997,-0.47896476747582445,-0.029654607780318552,-0.17625793656238403,0.8352642728383068,0.08349466012001933,-0.30118302207529934,1.2822441648827843
7.987912654876709,18.76143432306084,1.8411120910021548,2.4888295742104933,1.331495875694597,-0.46122946426118594,-0.027969675494216525,-0.2149348382911569,0.9372102574520845,0.08495351567972666,-0.2971319563919823,0.20255328416585172
8.007880687713623,18.775209265916164,1.836841147419517,2.4884859054994006,1.3402211333042562,-0.44244749336685507,-0.029079551362082852,-0.4535701159928455,1.0714646668254233,0.08645379882226605,-0.2862908134283746,0.542057148180386
8.027876853942871,18.815593490360918,1.8242317383853346,2.487647217543935,1.3348079497980887,-0.4039990937611581,-0.026385955944555346,-0.7986918636451755,1.1992714879405295,0.08734894035395284,-0.2675321043766119,0.9379354525881345
8.04786467552185,18.84210839337883,1.8163996404291958,2.487137016240665,1.3156309777483828,-0.3788173026801996,-0.024631963988933553,-1.1141162270381528,1.3172947911634316,0.08801217211822848,-0.25941914345868256,0.4056480458964673
8.067822456359863,18.869088422513475,1.8094120717049347,2.4867699807504513,1.3143533174040907,-0.34336693829063286,-0.0201171176762386,-1.437231461910628,1.4505026108983265,0.0874243755258887,-0.23943420996936382,0.9992466744659367
8.087921619415283,18.89506802047625,1.802843149520337,2.4863850770053166,1.2826303390441252,-0.31311876686160284,-0.018375685966416908,-1.7300860309381092,1.5724608533422653,0.0866957163718365,-0.22784265653796698,0.579577671569842
8.107988357543945,18.908727722488752,1.7999352495181582,2.4862700155754904,1.2891900963390275,-0.29194647920720357,-0.015661192027738913,-2.0264323997345395,1.7401350031714107,0.08526700365036878,-0.21452508436912554,0.665878608442072
8.127887487411499,18.947653410296734,1.791924444914436,2.4859249002772636,1.258891347333113,-0.23765550350210135,-0.01058039687817179,-2.3221565241379087,2.1452814758398713,0.08281579469966902,-0.18319483355021138,1.5665125409457081
8.148011445999146,18.97234873631474,1.787625661318972,2.485729691177072,1.2097647974166734,-0.1909879495478747,-0.008948743449522036,-2.585107960942755,2.5157674869733406,0.08034673444249288,-0.156434755800821,1.3380038874695188
8.167920112609863,18.99749505100101,1.7837773520036955,2.485821742968982,1.1920257001142536,-0.15250215136509507,-0.0005199936042330465,-2.8461680093486486,2.9213085121066213,0.0759361238836433,-0.12743043478005722,1.450216051038189
8.187877178192139,19.02075057729392,1.7813367264775688,2.485826242122297,1.1327663115805116,-0.09033351586041327,0.0009555957601724278,-3.074368065563831,3.289389726191712,0.0716421509836187,-0.09601450824415947,1.5707963267948966
8.207887411117554,19.03272378033065,1.779795430689799,2.486130122399659,1.1234407057842106,-0.07583101480299068,0.010072716062674984,-3.1793195208222835,3.862916649389625,0.06541886802800084,-0.07541491691638358,1.0299795663887945
8.22787594795227,19.06571413067729,1.7779473077269057,2.486818037234793,1.047264082000404,0.007959837705141679,0.02226570290737657,-3.2502453683879096,4.558684955669311,0.056643320497122084,-0.043998990380485825,1.5707963267948966
8.247907876968384,19.086005853837264,1.779061365900535,2.4872741162679985,0.981752729975629,0.10554863659336733,0.02331436779848201,-3.296909178271114,5.189509790140577,0.04829339377901774,-0.012583063844588072,1.5707963267948966
8.26795482635498,19.1054771172087,1.7798472336065663,2.488414658734954,0.9262765534827311,0.14985247182140898,0.04111967316030964,-3.3632773270996754,5.328643394659679,0.03619330901659576,0.018832862691309682,1.5707963267948966
8.287920236587524,19.12332670986054,1.7839180941503223,2.489243517929721,0.8585372733244921,0.2576181158213489,0.04172815546568131,-3.4069202620124095,5.444014088439649,0.02476581235618779,0.050248789227207435,1.5707963267948966
8.307966709136963,19.1317266060631,1.7852037747491085,2.4901807028751106,0.8236354774320487,0.26866193800010235,0.05667496411915067,-3.3973441297532747,5.432979503357394,0.01075688565856286,0.08166471576310519,1.5707963267948966
8.32788896560669,19.1547302974784,1.7947583878296585,2.492345472827452,0.7173268885414467,0.40618496676703697,0.06971421028828058,-3.2695807172545375,5.446130599815966,-0.005598968331701299,0.11308064229900294,1.5707963267948966
8.347902774810791,19.168431875208437,1.8039713464923663,2.4937375980023675,0.6532858406187654,0.5150987276356981,0.06944718721755035,-3.1330995583281425,5.442487198255166,-0.020935348464317192,0.1444965688349007,1.5707963267948966
8.367907285690308,19.18022320734217,1.8150188304862922,2.4955316963190173,0.576399949223574,0.6191339003357856,0.0783761092532693,-2.7523793334492064,5.6476253355129025,-0.037033845363494154,0.17591249537079845,1.5707963267948966
8.387946128845215,19.191225605696093,1.8285430995003873,2.497090791889542,0.5250752655007245,0.733869868535684,0.0774833339341247,-2.3817636353973874,5.82070007155969,-0.05206841479969794,0.2073284219066962,1.5707963267948966
8.40792965888977,19.195463657763813,1.8362457865180002,2.49795784663048,0.47725761329656025,0.7944755368977627,0.07937892182527191,-2.100248729704353,5.857944621540516,-0.0658867888898729,0.23874434844259396,1.5707963267948966
8.427956104278564,19.207256162619046,1.8626462433528785,2.5003637351398202,0.3696348335985087,0.9679210120250442,0.07878770891173772,-1.9848025175427892,5.800313993512685,-0.0787706142595483,0.2701602749784917,1.5707963267948966
8.447896003723145,19.214259939566702,1.8831600708932832,2.5019229236487903,0.33115050408298996,1.0832156523297,0.07709134380477439,-1.8625145193342272,5.7264958310944944,-0.09071044451815377,0.30157620151438946,1.5707963267948966
8.467891693115234,19.218171362367567,1.9061344596286505,2.5034511065753313,0.23816505479258251,1.2006773751640583,0.07501686761073927,-1.616799934178225,5.44759307713035,-0.10093811670527222,0.3329921280502872,1.5707963267948966
8.488192319869995,19.222627590351014,1.9312192822641665,2.504930615710213,0.20827047381655422,1.3068984919580449,0.07290269435082307,-1.3729824804847615,5.175672126329468,-0.11034391095323377,0.36440805458618497,1.5707963267948966
8.508018732070923,19.223290719445675,1.9450899376087563,2.5055389067104734,0.15911359229773156,1.3698370610192234,0.06810612575988895,-1.0354455827955267,4.54769927904357,-0.11741339945836621,0.3958239811220827,1.5707963267948966
8.527905941009521,19.226100493706078,1.989642522452788,2.5072416909153468,0.0875049455354836,1.547096205697805,0.05591467542240988,-0.7628842717516188,4.449019772431788,-0.12119136448301432,0.4272399076579805,1.5707963267948966
8.547963619232178,19.227715902466326,2.0214671398135193,2.508335517381929,0.07492553934078722,1.6350013089900306,0.05345691200665686,-0.4960013344386459,4.339759905203592,-0.12450933854972095,0.45865583419387823,1.5707963267948966
8.567883729934692,19.226937036230844,2.057312843204418,2.5085881231254556,0.013764739342912651,1.777144255089649,0.030816199062237697,-0.09113201285876758,4.251829937877827,-0.12172112975081828,0.490071760729776,1.5707963267948966
8.587896823883057,19.22722024723616,2.093699698083584,2.509180291377177,0.015849485335791783,1.8612126899001697,0.02841009310656587,0.2968101829800824,4.153273220287902,-0.11888108194948217,0.5214876872656742,1.5707963267948966
8.607889652252197,19.225850297120335,2.1136839529084006,2.5089361792856075,-0.023225387156876914,1.9324444577158286,0.012537611899852634,0.5388712015388105,3.8062039984995986,-0.11223964475705042,0.5495058617698891,1.4009087252107477
8.627897500991821,19.223592482302706,2.1744771246169465,2.5088363075718982,-0.05609950454571033,2.0757620955766964,-0.002731671382614153,0.7849254107903945,3.489161091889017,-0.1024768287412921,0.5266098346671546,-1.1448013551367264
8.647921800613403,19.222643419279347,2.2166694452174664,2.5087618086644,-0.03801732092148083,2.142438633302135,-0.004687070897766343,1.0217710419413757,3.179760571993642,-0.09313215651641214,0.5374402454737606,0.5415205403302981
8.667967796325684,19.219799807142557,2.2619142205482574,2.508031965632605,-0.0732929221629186,2.246941150328145,-0.02221155351311803,1.0888859926055945,2.726720772585399,-0.0802885880527135,0.5302185354298099,-0.36108550219753344
8.687949419021606,19.218556476179707,2.307369246526356,2.5075725004211185,-0.05079817803243645,2.297121873489211,-0.023694326919868985,1.1614806002654097,2.294841158248014,-0.06809614817081915,0.5296703936621108,-0.027407088384956424
8.707902193069458,19.21696997965618,2.3318936379586073,2.5068546924133237,-0.07110929243936129,2.3599765515246647,-0.037979517421032456,1.1079381041710037,2.1318183206923464,-0.0535907344245407,0.5299212868074288,0.012544657265900483
8.7278573513031,19.214654630634534,2.405390181679848,2.505198377005965,-0.05481361776343558,2.4696915361733427,-0.05338590283542878,1.286488008983486,1.7320131236211171,-0.0363320935843155,0.5210048057759837,-0.44582405157225224
8.747936964035034,19.213827335354996,2.4551048049389954,2.504124492462541,-0.027335654342269828,2.5005074629137445,-0.05394838862977059,1.4605652327327132,1.3530073153604578,-0.02008285800482756,0.5192071005615566,-0.08988526072135627
8.767938613891602,19.213009184445056,2.507727840224304,2.5025070795713376,-0.011124752673371551,2.5829315780434245,-0.06692306761452553,1.564409722967555,0.9771036179535326,-0.0021862636844624953,0.5147880762347734,-0.22095121633916026
8.787989616394043,19.213106417108026,2.5595578704940793,2.5011693181948584,0.021189018930597398,2.598887433530115,-0.06679712820871078,1.6667096368126844,0.621891129552208,0.014596704690617253,0.5107879125479906,-0.20000818433913992
8.807921648025513,19.213107504214477,2.587045671538294,2.500317747247635,0.030834938417179672,2.6425465741423073,-0.07154040685013514,1.7983758626548303,0.13926485062958774,0.030687970778422054,0.5098979446955272,-0.044498392623171235
8.827914237976074,19.214565944732225,2.6680649734134145,2.498088440053707,0.0784253612935914,2.6910006643175657,-0.07310062803241217,1.9604952160855895,-0.30725335455135444,0.04610205909465774,0.49832989613726086,-0.578402427913316
8.847928762435913,19.216536997702143,2.7217951389869133,2.496636622820441,0.11919631612492682,2.6806185954208996,-0.07203321630469023,2.1154117314641825,-0.7264531795253173,0.06046616571948512,0.49678028665058527,-0.0774804743337798
8.8679780960083,19.219064607755154,2.7777062446002483,2.4951784412403395,0.1559025380731138,2.7225569326634145,-0.07112565905714059,2.2653397831989577,-1.3122101676855675,0.07312353543398531,0.4899859301667093,-0.33971782419379704
8.887911796569824,19.222645288029106,2.8318577232633366,2.4937713499423997,0.20263642925992204,2.69076019138546,-0.06954437908540602,2.406624990529229,-1.8614467506310697,0.08485140244056037,0.48572583810980907,-0.21300460284501277
8.90787649154663,19.22466157186616,2.860394712778737,2.493165773979394,0.22353796697503758,2.7185333535773073,-0.06595478567275155,2.4386233495556593,-2.1712531243857622,0.09428225197182472,0.4837787463314891,-0.0973545889159988
8.927894115447998,19.23239633428134,2.9429576718372084,2.4914158541593645,0.29575289372200286,2.706777172341662,-0.05750565788913196,2.5024674547611396,-2.463407174041011,0.10111838779219534,0.46975283742512675,-0.7012954453181175
8.947936296463013,19.238816001619487,2.9965820449692484,2.490286389286552,0.3464173288590632,2.654751953813982,-0.05542011065107852,2.563515109835211,-2.7358708723218403,0.10733427241669757,0.4676783115196472,-0.10372629527397592
8.967851638793945,19.246492929328085,3.051300485697588,2.489660118943218,0.4040943301774553,2.6500487999849636,-0.04142390314860011,2.5558179269707284,-3.0255800728131286,0.10933037265988615,0.4582300089608977,-0.47241512793747553
8.987971305847168,19.25508556307052,3.103678113122335,2.4888536232345237,0.45514981040203584,2.5868200983754233,-0.03922012927863114,2.55004700017093,-3.2937419183057473,0.11099206185149134,0.45393424375378943,-0.2147882603554141
9.007892608642578,19.26009757062975,3.1303069313388217,2.4888444712050135,0.4901467400484195,2.5772245616282388,-0.027254884028957406,2.5043438461031506,-3.547550281063356,0.10933028916681116,0.4494496475597072,-0.22422980970411288
9.027913093566895,19.27643322960883,3.206802239040802,2.4884840728892432,0.5787420815818338,2.4909597250481528,-0.012306798073065294,2.3491688452333945,-3.7043556328725407,0.10424018254413646,0.43235102398247927,-0.8549311788613956
9.047914505004883,19.28846815656842,3.255870871821164,2.4882584514486554,0.6242730032622117,2.4154315585391033,-0.010271925107088672,2.2058807695125124,-3.845960556116754,0.09926643102211269,0.43048988415249223,-0.09305699149935176
9.067935228347778,19.30252545921454,3.3040049460879923,2.4887037385330406,0.696418752854094,2.3534103271655202,0.00727569138892217,2.0500976203484114,-3.7036507377774526,0.09030601413216259,0.4157651376638891,-0.7362373244301557
9.08787202835083,19.316854139445446,3.350341740636888,2.48886673543281,0.7359745840961152,2.280732231260691,0.008995409225256074,1.9076861917560486,-3.5647191242445375,0.08172908556735048,0.4140455151809177,-0.08598112414857084
9.10800814628601,19.325297422088433,3.3728719724448726,2.489308010156678,0.7822676374306292,2.2421113485114548,0.019419523989529446,1.771461256883928,-3.4413517871533026,0.07138889212873878,0.4036117472687648,-0.5216883956076446
9.127872228622437,19.350696312956583,3.4378248782798893,2.4901398454242223,0.8662875793980119,2.116840247435864,0.027348705071697614,1.5995684720617471,-3.3626515884442982,0.05992637045543111,0.3850835061986202,-0.9264120535072307
9.147999286651611,19.368331321654995,3.479494431732515,2.4906980705059234,0.8966936545206026,2.050379547704892,0.028437580541686484,1.4436708922555512,-3.2833175932852243,0.04905939568866543,0.3835407119394354,-0.07713971295923994
9.170222997665405,19.38819236821411,3.51816014649431,2.491369092489884,0.9649322444202241,1.942970520986087,0.0312140870115955,1.2582626335138734,-3.1388040253269804,0.03858445287616557,0.36227220437281904,-1.0634253783308178
9.188038349151611,19.407731203361227,3.556401186544093,2.492000421525055,0.9883929144865077,1.881598980743682,0.031885809941807335,1.0907481958947305,-2.999153618431645,0.02868227929201986,0.36450720539000514,0.111750050859305
9.207841396331787,19.418727006218784,3.5737919505744173,2.4922838562761696,1.0277313105002504,1.8167968711187024,0.030926322789074995,0.897990781298672,-2.7930309303237517,0.02010120565750603,0.34780022314779524,-0.835349112110495
9.227906703948975,19.45111059344174,3.6255755310881352,2.4931305351138,1.0857804296257385,1.6929457405702895,0.02874109954912549,0.7112941314375866,-2.5640138163959763,0.012711001038571701,0.3305743001029313,-0.8612961522431961
9.247864961624146,19.472956989765024,3.6589362895082087,2.4937074280637304,1.0983016675453543,1.643852190237057,0.028924986366753596,0.5440250818145025,-2.347382587736504,0.005748121932496491,0.32949802053593835,-0.053813978349648295
9.26789927482605,19.496632749953402,3.6890108862617437,2.4940266217633886,1.1475606634439184,1.5401635028486198,0.022219990501903087,0.37442741666040613,-2.094643414160045,0.0011868594030927876,0.30563621766285465,-1.1930901436541852
9.287945747375488,19.519648494360364,3.7194113197693333,2.494470968483111,1.1535116964370105,1.5006719960382413,0.022200382620371002,0.2237947847946047,-1.8569931965299937,-0.003102895397445975,0.31173610137981367,0.304994185847951
9.307863473892212,19.532149552778833,3.7326750278173115,2.4944512080863843,1.1814929963177256,1.4373609288687113,0.015157907152959324,0.08530967193826497,-1.576425663467121,-0.005137772664764122,0.2915006557127695,-1.011772283352208
9.3278489112854,19.56854127129604,3.773240509617859,2.4946393581352955,1.208610138492552,1.3397022664517366,0.007431097045600549,-0.03469761125146045,-1.299546471896708,-0.0051095430300260635,0.279074998320044,-0.6212828696362749
9.347926139831543,19.592699355727188,3.799792200734619,2.494786959832719,1.2068528526457434,1.3163297347907508,0.007329152425694912,-0.1383406069893044,-1.0406726069461911,-0.005085621189432233,0.2798267352225663,0.0375868451261141
9.36788034439087,19.61784555030968,3.8232297730346483,2.494549185334425,1.2280175594470437,1.228651377007318,-0.00218942878306729,-0.296431104196765,-1.0372774232772755,-0.0026677596528180744,0.25792788968542846,-1.0949422768568917
9.387966394424438,19.6423370144413,3.8475955127028723,2.494505016439263,1.2206642237064231,1.2079300035558918,-0.002219930020189296,-0.4358283994223716,-1.035052869557085,-0.0004084834738601316,0.26680043440004697,0.44362723573092566
9.407883167266846,19.65505750629534,3.8580844598856046,2.4942853770100255,1.230364835165701,1.1519713514829888,-0.007680804400824149,-0.5543739145694204,-1.3562845322049684,0.002958556650741943,0.24718309008256378,-0.9808672158741594
9.42795467376709,19.6922628961973,3.8911512530321373,2.4939495787423835,1.2279045195855174,1.08401056338913,-0.010396019394528638,-0.6882106013403364,-1.8109827637018385,0.0067401874047681104,0.2416646999994536,-0.2759195041555085
9.44794487953186,19.716675323332808,3.9124406783784127,2.493743245376022,1.2129519324337503,1.0435308429456251,-0.01022558390110993,-0.8040972172526665,-2.231335314278751,0.010260293319220824,0.23623119875072351,-0.27167506243650497
9.467889785766602,19.74140922676113,3.9329737653893684,2.493586437553354,1.2121294398907088,1.0033830233958407,-0.008329473268609128,-0.8414423826969061,-2.482159006388467,0.012887996962568043,0.22924587878590597,-0.34926599824087745
9.488089561462402,19.76548159712483,3.952529354263142,2.493422590807172,1.1950202780308359,0.9514116485002616,-0.008047110751981255,-0.8676432896928855,-2.711432852916954,0.015315258381624139,0.22299411779849088,-0.31258804937075446
9.50788402557373,19.777651146464816,3.9627771232949143,2.4935027261405254,1.1932590088114916,0.9485436774221583,-0.00317629484951352,-0.8816888101928295,-2.8122378773789785,0.016184163022257517,0.2249866377067251,0.0996259954117118
9.527890682220459,19.81310932991457,3.991007454083953,2.4936155505228044,1.16771368927084,0.8929448542200594,0.003067970186305321,-0.9154121097209978,-2.8631320244636425,0.015397542265630854,0.21344424650178784,-0.5771195602468637
9.547913789749146,19.836278837903766,4.008290817341129,2.4936799374671224,1.149162202084816,0.8352540592201777,0.003368133827900925,-0.9378898848918601,-2.9043605018899896,0.014620420015322388,0.2050111552385685,-0.42165456316096694
9.567978620529175,19.85888513388102,4.025487369517146,2.494039859967375,1.1255916130448944,0.8050699532430147,0.01076726535268154,-0.8944284863493938,-2.6224480477568375,0.011986419524378832,0.2054010950699654,0.01949699156984508
9.58794903755188,19.881221326631962,4.041082430825975,2.4942574335853798,1.1081956738690335,0.7553331776850206,0.010981757015090951,-0.8440289085685022,-2.3533439828798204,0.009484545188661207,0.19344220935969236,-0.5979442855136519
9.607921123504639,19.891999133764852,4.048738106659256,2.4945209726145414,1.0917578263394299,0.7393793435277669,0.015307196737969889,-0.8791736268587618,-2.0846376247496656,0.006127727037259501,0.19710799165941095,0.18328911498592948
9.62787389755249,19.9239974178505,4.069554675647622,2.4950736412807673,1.0548422609571955,0.6662028351523195,0.017916583651540405,-0.9165391785880949,-1.825572139233789,0.002327043012397234,0.1779160163107978,-0.9595987674306583
9.647904634475708,19.94490912861135,4.082530214175751,2.495432196224181,1.0362483772597575,0.6321697114285864,0.017926988844168646,-0.9406770303369788,-1.5799594207971286,-0.0012495927525463361,0.17756451105762938,-0.017575262658420243
9.667885780334473,19.964953724605202,4.093895268467612,2.4958308240260885,1.0053558877876483,0.5775134048527436,0.01874334770356633,-0.9354079152052981,-1.373372913313832,-0.004700923968727954,0.16381678171765257,-0.6873864669988405
9.687866926193237,19.98487462919725,4.105184107301366,2.4962045315331514,0.9867864637267462,0.5520240564931839,0.01861661808732532,-0.9198455409836505,-1.1772960213758177,-0.0079364794614255,0.16452641957796743,0.035481893015743005
9.707947731018066,19.994399275794287,4.109902177255415,2.4963883560752738,0.9692978686463981,0.5206998772380292,0.01842338780159317,-0.8900839567109802,-0.9996869046323469,-0.010775196386370934,0.15424968058934985,-0.5138369494308792
9.727894067764282,20.02272539702938,4.124250626023572,2.4969264718135804,0.9328205180460277,0.4692138003191393,0.01778947516592645,-0.8383783903344977,-0.7817818098138585,-0.013306556200523026,0.1440957082057559,-0.5076986191796973
9.747928857803345,20.041217925862785,4.133492429504787,2.4972794400363236,0.9166277453888723,0.4556501477007015,0.0174994932211255,-0.7797684174512628,-0.5766972485079592,-0.01566279029331506,0.1452468359047332,0.057556384948864725
9.767887830734253,20.058744252564765,4.141354458604345,2.4975956421337573,0.885095827424413,0.4174211959650078,0.01635990946853345,-0.698711326251001,-0.3564469589944435,-0.017517097602144486,0.13373600807426556,-0.575541391523382
9.787949800491333,20.076312064113214,4.14964558072741,2.4979192203735003,0.8719709948326664,0.4123789421500149,0.015992204607880003,-0.6130142285962406,-0.1500641050566642,-0.01923012330817894,0.1402414260224809,0.32527089741076765
9.807891607284546,20.084487227365578,4.152973831338398,2.498049589711438,0.8519814900807455,0.38951334784345265,0.014961682029781074,-0.5072057782101523,-0.030640916647752345,-0.020494136892389114,0.12960035901845002,-0.5320533502015445
9.827953338623047,20.10918656593089,4.163769264987183,2.4984619923418427,0.8186040942752895,0.36276679213497326,0.013570093541765225,-0.514390823825466,-0.17593951363833626,-0.021391044915784575,0.1280386030713161,-0.07808779735669624
9.847936868667603,20.12545576306071,4.170980215197758,2.4987290607120825,0.8083230299606434,0.35787637739486383,0.013134052881708026,-0.5121722259896603,-0.3114990202753161,-0.022198263145085086,0.1279270018625911,-0.005580060436249923
9.867946147918701,20.14070401372898,4.17744564137521,2.4989767691924074,0.7780815937549704,0.3363483544116198,0.012568774767084937,-0.5357676715092676,-0.5445379559122855,-0.022805630260365445,0.12371124758957164,-0.21078771365097282
9.888041019439697,20.156157455208533,4.184048999957388,2.499223546837811,0.7672194991468005,0.3232661845148493,0.012107215447618537,-0.5486895206240554,-0.760940599529629,-0.023337961034310066,0.12096559957617048,-0.13728240067005792
9.90789270401001,20.163447584062244,4.187514524242173,2.4993773354251054,0.751496003486459,0.322333345814521,0.012891888471830693,-0.5987705994963798,-1.0020488684789135,-0.02401059817010751,0.12564616715993093,0.23402837918802266
9.927841901779175,20.185528875505437,4.197601693267517,2.4998084061977344,0.7275605059274831,0.31499774237924805,0.013764212072312012,-0.6832931573887904,-1.3257057210540728,-0.02493861292155844,0.12612042836632265,0.023713060319585644
9.94793176651001,20.199938586994747,4.203616193890689,2.500078645897281,0.7131816802875994,0.2854574423893544,0.013256999842677114,-0.7519895376773017,-1.6241794590012588,-0.025766068464769563,0.10917059734067402,-0.847491551282431
9.967886209487915,20.21399146755242,4.2107396891253845,2.500439378080778,0.696637835968073,0.29506316066620936,0.015282175898576368,-0.8201004792006983,-1.9203743710035195,-0.027049707162583397,0.1290347997249346,0.9932101192130283
9.987935781478882,20.22775642157503,4.216238386291136,2.5007395324977613,0.6796808677005423,0.2539026219709038,0.01472941323948221,-0.8731174016644766,-2.1915651545651924,-0.028205530058481955,0.09761887318903684,-1.5707963267948966
10.007899761199951,20.23460062703789,4.220023099727157,2.5009578763194265,0.6730560312599966,0.26867223004535196,0.016533838071375866,-0.9429810405203394,-2.4222108333378016,-0.02968206076532136,0.12227327819746003,1.2327202504211598
10.027982234954834,20.254553662422303,4.2285389105668285,2.501518832896314,0.6501212954435497,0.24050673652723534,0.017872349822952643,-0.9430949226465645,-2.3459891123319734,-0.031480512412239064,0.0972657648100248,-1.2503756693717616
10.047931671142578,20.267367991570868,4.232884879865234,2.5018698724262474,0.6313464079807904,0.19434098365176286,0.01722617517148102,-0.9326638573482555,-2.2707524265271126,-0.03310898438930707,0.07368163193521537,-1.1792066437404713
10.067869186401367,20.28004705051707,4.238034839782507,2.5023532317110626,0.6191337307406317,0.19291795670672754,0.020179075206600984,-0.8415823762034597,-1.8790886295998819,-0.03534020318719678,0.08597485969136898,0.6146613878076801
10.088026762008667,20.292267731375812,4.241542396543013,2.5027496067423476,0.6032545733391821,0.159070441686753,0.019451675821056162,-0.7455203259810516,-1.5092642160149172,-0.03736592052548663,0.054857484417973446,-1.5558687636697766
10.107920169830322,20.298288565067157,4.243400781316107,2.503007651284208,0.5966976986780409,0.15547113625818273,0.020817550403164242,-0.6928382120780467,-1.134756296196008,-0.0394898529461933,0.06463852733970121,0.48905214608638836
10.127872705459595,20.315711607675997,4.246902258027806,2.5036132043177224,0.5716263904678534,0.10351910532063985,0.019436639313425708,-0.6208608850798749,-0.9225298328397676,-0.04121111061042865,0.03322260080380346,-1.5707963267948966
10.147923707962036,20.327025047004362,4.248801760174077,2.5039935894809866,0.5599763813249269,0.08710379222545758,0.018596760526502786,-0.5432127731455154,-0.7207217289709288,-0.0427461382735318,0.008461129200188822,-1.2380735801807319
10.167907238006592,20.33778895631095,4.249011300075191,2.504246580510116,0.5413005748864697,0.03902308945532617,0.014883591181081209,-0.47388353631947083,-0.557016272585631,-0.043175451360707065,-0.022954797335708932,-1.5707963267948966
10.187933683395386,20.34852509187255,4.249690891088211,2.504535594141946,0.5325625704842423,0.0294563423585917,0.014016707429381672,-0.39901024268683666,-0.4009149505534891,-0.04349487657872654,-0.03917339534048425,-0.810929900238766
10.207959175109863,20.353582523834646,4.249094108591561,2.5045891545028818,0.5221268494329805,0.002629813486483669,0.011160462391140168,-0.3281073984645993,-0.2060986324037931,-0.04301655327920806,-0.07022969033889437,-1.5528147499205058
10.227901220321655,20.368800181330737,4.248224881014729,2.504840304177096,0.5045709497493279,-0.02743872383994326,0.008105059521540916,-0.23003833680255817,-0.16721343423466875,-0.04189591132943714,-0.10164561687479212,-1.5707963267948966
10.24789047241211,20.378852283138194,4.247645245255057,2.5049941014881316,0.5009762302030638,-0.030395978340805194,0.007278446164786938,-0.12894099242924384,-0.1285518036033353,-0.040763552714419685,-0.10367289846457162,-0.10136407948897475
