t,x,y,z,vx,vy,vz,ax,ay,az,yaw,yaw_dot
0.13299560546875,-0.743465217142045,2.969118300638887,2.5026613428866313,-0.0859035690736555,0.09427459806271504,-0.01557180166197494,-0.008366927279022421,0.15285389841020233,0.004679823411169664,-1.3184581506635038,1.5707963267948966
0.15298819541931152,-0.7451944350366053,2.9710272706342815,2.502324576869263,-0.08616611079419997,0.0971230730047156,-0.016305425891649208,0.022012391433877326,0.1555725913367069,0.0053919346595981375,-1.3498740771994018,-1.5707963267948966
0.17293119430541992,-0.7478155201353772,2.9739984009652143,2.501811677939755,-0.08661211043291973,0.10147681185128846,-0.016872836518951058,0.056726291232938625,0.1629442201725171,0.006119106127070664,-1.3184581506635038,1.5707963267948966
0.19318819046020508,-0.749534155828106,2.976060980516371,2.5014754922346993,-0.08513927431146442,0.10480325526489155,-0.016743394877891164,0.09038183035932945,0.16957798924403725,0.0068208436876817415,-1.2870422241276058,1.5707963267948966
0.213057279586792,-0.7504618651362165,2.9770948336069814,2.501288278115333,-0.08649954772555563,0.10587235100934905,-0.01717230971311492,0.1023981353087959,0.1747447365740629,0.0075091255569922155,-1.2556262975917079,1.5707963267948966
0.23298382759094238,-0.7521705887625826,2.9792475443921496,2.5009463783859482,-0.08433365205580046,0.10941397820815132,-0.017015451862989483,0.11414702427242197,0.17932007950072387,0.008172539129608226,-1.2242103710558099,1.5707963267948966
0.2531008720397949,-0.7540213025483388,2.981411038826195,2.5005542729697994,-0.0865713940815101,0.11163721622896486,-0.018379231740084254,0.1271583108721265,0.20204933840438066,0.008889985587263094,-1.2556262975917079,-1.5707963267948966
0.2729313373565674,-0.756663604561177,2.9847913017745125,2.499933348450311,-0.08550609880186115,0.11590487472517624,-0.02014446137884274,0.14218420064866355,0.1967632902941609,0.009701321021601953,-1.2242103710558099,1.5707963267948966
0.29311466217041016,-0.7583443088848552,2.9871483901566562,2.4995324520788587,-0.08251563970516533,0.11978572022937703,-0.019942570957980972,0.1567924241134223,0.1912903620654746,0.010482769418429237,-1.192794444519912,1.5707963267948966
0.3130664825439453,-0.7592385216102054,2.988296990836557,2.4992883839687967,-0.0829243775246374,0.11999162276372177,-0.02099517785690882,0.17808710793303306,0.18387535574512423,0.011285367476398309,-1.161378517984014,1.5707963267948966
0.3329019546508789,-0.7608600065217206,2.9907331000409125,2.498870789470064,-0.07915542323635394,0.12359431579345505,-0.020761697963123545,0.19869434476321618,0.17638081729993127,0.01205758948070807,-1.1299625914481162,1.5707963267948966
0.3530697822570801,-0.761720694610617,2.9919442814264148,2.4986670109164937,-0.07929825938310407,0.12434542658906253,-0.020484306960262898,0.21255521164471353,0.16475388286695886,0.012765622518389464,-1.0985466649122184,1.5707963267948966
0.3729288578033447,-0.7648598132829241,2.997045212975902,2.4978907355588627,-0.07405050101327651,0.13071890819649856,-0.01911535715994143,0.2261850384227198,0.14562240422165545,0.013374992378904224,-1.0671307383763207,1.5707963267948966
0.3930487632751465,-0.7662946989718559,2.999687460114343,2.4975111427695778,-0.06939405513975878,0.13344336053067204,-0.018841975006293917,0.23938893542411932,0.1268888010099507,0.01395902620659876,-1.035714811840423,1.5707963267948966
0.41307759284973145,-0.7670469785369991,3.00104005342762,2.4973583261257684,-0.06897070238336346,0.13471587446186292,-0.017680278064863726,0.23928661140424373,0.0828218744436642,0.014432494183612915,-1.0042988853045252,1.5707963267948966
0.43291306495666504,-0.7690652701072539,3.0051761377972968,2.4968762945720986,-0.06347609198017189,0.13860770843272938,-0.016042428158334645,0.22307359949290215,0.04518723901557331,0.014793168897798753,-0.9728829587686274,1.5707963267948966
0.4531114101409912,-0.7702912229501144,3.007954879302612,2.4965584277758905,-0.05917089670915182,0.13914491142983149,-0.015743109892413888,0.2075621350975726,0.00872781558126106,0.015135643830841745,-0.9414670322327297,1.5707963267948966
0.472888708114624,-0.7714394948473029,3.010875893193025,2.496307155973917,-0.05491360751859041,0.14277776836616327,-0.013952282330872284,0.21259657664452883,-0.001594714385571422,0.015345756139408952,-0.9100511056968319,1.5707963267948966
0.4931926727294922,-0.7724949230816709,3.013730449052768,2.496031192797489,-0.05061316838783336,0.1426439156241807,-0.013643380754202896,0.2174108828889795,-0.011765326895748548,0.015542126560603015,-0.8786351791609341,1.5707963267948966
0.5131714344024658,-0.7729543703223676,3.015258040819236,2.4959279473824854,-0.04741806754947323,0.1453378840482542,-0.012570807589895394,0.21637434871974512,-0.015428045921926151,0.015655858400559403,-0.8472192526250364,1.5707963267948966
0.5328884124755859,-0.7742481860235164,3.019684560965748,2.4955874836286465,-0.0400142756957438,0.14673028184245146,-0.011254322051404714,0.21923048808435347,-0.034488743857665025,0.015691339274052578,-0.8158033260891386,1.5707963267948966
0.5531439781188965,-0.7750044348063716,3.0226110265673882,2.4953655373972863,-0.03560106745817375,0.1458546348494374,-0.010940210995575886,0.22209101761668845,-0.052981890953114424,0.01571836809315019,-0.7843873995532409,1.5707963267948966
0.5764760971069336,-0.7756355738456414,3.025587936663745,2.4951982897277984,-0.030248550478858716,0.14648925554767178,-0.009409405308398571,0.22591246767367829,-0.05898006944470012,0.01564643765916484,-0.7529714730173431,1.5707963267948966
0.5930666923522949,-0.77619510577557,3.0285055242503534,2.495013225859086,-0.02569178359027943,0.14524940079620757,-0.009097238271359184,0.22977011737499975,-0.06501075001549145,0.015569426572714257,-0.7215555464814454,1.5707963267948966
0.613055944442749,-0.7764224566712427,3.0299945120571508,2.494956409865141,-0.022822983973042346,0.145732708611571,-0.007989639217273718,0.23627422620692692,-0.06139657528639434,0.015423272085100359,-0.6901396199455476,1.5707963267948966
0.6332695484161377,-0.7769869808872919,3.0343663177073026,2.494755489978811,-0.015411699198058031,0.14479459360287092,-0.006623269745559252,0.22717136445940092,-0.040858818543197305,0.01520481726072917,-0.6587236934096499,1.5707963267948966
0.6531953811645508,-0.7772503637252302,3.037255357632273,2.4946260509681175,-0.010955348618363074,0.1441745725097735,-0.006321360529694732,0.21854204288888351,-0.02130653332914249,0.014986056031241944,-0.6273077668737521,1.5707963267948966
0.672935962677002,-0.7773808346678831,3.040113310932994,2.494547364185626,-0.005310757729803671,0.1432124975631095,-0.004923015528065942,0.22567018868991898,0.0031581171977311277,0.014689608132360813,-0.5958918403378544,1.5707963267948966
0.6931660175323486,-0.7774414399823125,3.04297975884894,2.4944518221514285,-0.000725974688061458,0.14350954160120719,-0.004632168188079719,0.23280986111813848,0.026332667628763747,0.014395519237557112,-0.5644759138019566,1.5707963267948966
0.7130351066589355,-0.77739643948497,3.044346524151548,2.4944314900867868,0.0026646139362818343,0.14188683452148027,-0.003777099480751381,0.222407738359184,0.04598607459500012,0.014061149904627233,-0.5330599872660589,1.5707963267948966
0.7329654693603516,-0.7772993343213631,3.0471947177422685,2.4943587382267642,0.0070128795929481815,0.14299467245346506,-0.0034991883662432283,0.2125007727838848,0.06463066134388906,0.013730596243963254,-0.5016440607301611,1.5707963267948966
0.7531187534332275,-0.7772152261844435,3.048102045532736,2.4943530728757315,0.009411645883367119,0.14086146877029737,-0.0028605642844868858,0.21564408588313108,0.09456515384807265,0.01337547995850502,-0.47022813419426335,1.5707963267948966
0.7728862762451172,-0.7766009964497897,3.0536013565761144,2.494278581130481,0.019650036541320377,0.13966730629779603,-0.0016110093708488844,0.21713013670742087,0.12586232890619298,0.012962307961463066,-0.4388122076583656,1.5707963267948966
0.7930598258972168,-0.7761644611711962,3.056421883425944,2.4942489261984995,0.024009073059869067,0.14248449708869687,-0.001355838514369989,0.21880459497477003,0.15559818009286747,0.012555901028140328,-0.40739628112246784,1.5707963267948966
0.81307053565979,-0.7755886956645657,3.0591031313748847,2.4942489072874343,0.02959638354068456,0.14073827575752923,-0.0005049243175927861,0.21192867410081584,0.1765315144325019,0.012116516484827974,-0.3759803545865701,1.5707963267948966
0.8330338001251221,-0.7749548248112395,3.0619545388079796,2.4942412032103594,0.033768836114123485,0.14446825649451348,-0.00026692148299841854,0.20536889505891184,0.19626845635574255,0.01168508749431637,-0.34456442805067233,1.5707963267948966
0.8531031608581543,-0.7745751081270832,3.0632746034533156,2.49425286702689,0.03656114359510554,0.1427489709976002,0.0002340777457219487,0.1833887445340454,0.2105342196770678,0.011244278768517049,-0.3131485015147746,1.5707963267948966
0.8729884624481201,-0.7733418591090346,3.067522308825225,2.494276730218401,0.04352223323589141,0.1456499831534955,0.0009009468232916724,0.1677802884819608,0.23867387482274374,0.010783557722587928,-0.2817325749788768,1.5707963267948966
0.893019437789917,-0.772438858221287,3.0704848394914666,2.4942968756127417,0.046728537323370054,0.15069157553698584,0.001112087574077694,0.15298463302783802,0.2652218476154609,0.010332045364306146,-0.2503166484429791,1.5707963267948966
0.9130847454071045,-0.7718940329099375,3.0718934252407055,2.494318907725853,0.05032499004105871,0.1501956991276646,0.0015050027662395764,0.16016533223244486,0.26594587428663163,0.009879366711201388,-0.21890072190708132,1.5707963267948966
0.9330501556396484,-0.7708550223683,3.0749505498357994,2.4943509539440223,0.053599930000747475,0.15551738882443164,0.001698141288013207,0.16732507673326266,0.2661345416532616,0.009436036509062804,-0.18748479537118357,1.5707963267948966
0.9531800746917725,-0.7696435690116464,3.077957876815055,2.4944004597313754,0.05960501530419854,0.157219204193157,0.0022244528539879732,0.18451456981020692,0.2787716570105831,0.008982011435049717,-0.1560688688352858,1.5707963267948966
0.9729433059692383,-0.7677470287667283,3.0827409607741942,2.494478871525988,0.06610039330508265,0.16416928381460952,0.0027071570049519056,0.22390413144303878,0.30584587832774773,0.008518659929466526,-0.12465294229938806,1.5707963267948966
0.9930543899536133,-0.7663776708929019,3.0860872374816832,2.4945346880233785,0.07096291198889217,0.17054310509352708,0.0028729825442906348,0.26215969666647354,0.33126169543251427,0.008065601373952295,-0.0932370157634903,1.5707963267948966
1.0130963325500488,-0.7656789945488446,3.0877628344800065,2.4945713782421013,0.07307604551973455,0.172721365259528,0.0031651010120115545,0.2955392599222316,0.35339636388158013,0.007618137516231129,-0.10050765068831735,-0.3635317462413523
1.0330970287322998,-0.764156189675592,3.091289342638492,2.4946361745691408,0.07931243217105331,0.17999830447279203,0.0033130741149947937,0.32793653918311977,0.3740528623136401,0.007180862820834471,-0.09836864564993197,0.10695025191926888
1.053032398223877,-0.7626669156228558,3.09485621093127,2.494700240255399,0.08185607937678203,0.18492519037919125,0.003177627454375095,0.35042278362909657,0.3935112557328864,0.0067746158574266135,-0.10222254084090254,-0.19269475954852844
1.0729968547821045,-0.7609582404824958,3.0986346444194814,2.494765121108376,0.08908438562502606,0.19297837546673471,0.003309134568758103,0.37230816727943933,0.41157668103258804,0.006377632029581772,-0.10382448436537528,-0.08009717622363688
1.0930469036102295,-0.7592952625081949,3.102467340669598,2.494698729306752,0.09192035858304229,0.19859036360764346,-0.00014027069256048377,0.3950371509192202,0.42077852623063416,0.006222890948581071,-0.10403578050706752,-0.010564807084612049
1.1130609512329102,-0.7574453567914406,3.1064924544274715,2.494637269538765,0.0975711913341937,0.20611237711287078,-0.0019754580320455613,0.3941685994654593,0.4352072938274938,0.006194102058237963,-0.10758779224288961,-0.17760058679110458
1.1330993175506592,-0.755415150682002,3.1107026480230444,2.4945989971562605,0.10544695448054453,0.21495126403894232,-0.001851884362688251,0.3934290231565177,0.4484920333646228,0.006162859501637512,-0.10942856647454002,-0.09203871158252053
1.1531903743743896,-0.7533675628415025,3.1150415135124545,2.494494643797521,0.10961633248304388,0.2228411608068577,-0.0032082029670839458,0.348749385170211,0.45893171387465626,0.006219614121851982,-0.10981385413781286,-0.019264383163641874
1.1729397773742676,-0.7499419374983286,3.121919802122897,2.494388745852266,0.1194874167160662,0.23631441995001431,-0.003409380578276633,0.3255561578564376,0.4661367369542379,0.006289491093577671,-0.11505886361453266,-0.2622504738359899
1.193070411682129,-0.7474885792730325,3.1267397555150396,2.4943218205141147,0.12577408143965202,0.24570209567210313,-0.003282939161509644,0.30325865657463513,0.4724898611492114,0.006353715028067503,-0.11350664277263256,0.07761104209500491
1.2130649089813232,-0.7448469503225824,3.1317516759026023,2.4942003290079935,0.13353033532309908,0.2553195062252891,-0.004654105025779435,0.28752810742520124,0.47718782704086965,0.006501232376131059,-0.119305847863314,-0.2899602545340718
1.233393907546997,-0.7421198533881058,3.1369537774626055,2.4941085565761703,0.13912913958688103,0.2649036931251824,-0.004522673866548118,0.27246240112733594,0.48110102311455716,0.0066405212197476905,-0.11663334967005845,0.1336249096627773
1.2531466484069824,-0.7406375913804639,3.139642609284378,2.494015521669225,0.14391887323143687,0.2702443765012485,-0.00578854349864328,0.25501949106084293,0.48689041616895445,0.006850638407333942,-0.12173694798937928,-0.2551799159660417
1.272904872894287,-0.7361176130279249,3.1479948051479303,2.493818000699885,0.15385342970755653,0.28565423322551875,-0.006291886594047193,0.2298438221593671,0.49201508618562234,0.0070878902464560955,-0.12185562465489674,-0.005933833275872935
1.293034553527832,-0.7329962044775551,3.153806593630626,2.4936935957930184,0.1582068052607312,0.2955389798359535,-0.006147851173862226,0.20565759203160874,0.4963247207905352,0.00731376830854722,-0.12352034445644255,-0.08323599007729054
1.3131272792816162,-0.7301609174657859,3.158953275493208,2.4936022250906076,0.1645153483339655,0.30533257485414095,-0.005609503721154258,0.17649668172175825,0.49778693215060665,0.0074906459984938065,-0.1248668001664881,-0.06732278550227733
1.3329782485961914,-0.7268371991923169,3.1651595478285244,2.493491544453112,0.16776300491163246,0.3152972688545057,-0.005458002651605578,0.14845421820023832,0.49857015578613206,0.007657861158289435,-0.1248942179282313,-0.001370888087159905
1.353121280670166,-0.7248706685036296,3.168704589932368,2.493467735622506,0.17239616032489785,0.32211948796631446,-0.00433815064791386,0.12697340125438414,0.499589865272104,0.0077407748087739954,-0.12697015050887916,-0.10379662903239328
1.3729333877563477,-0.7195083778440575,3.17864290528981,2.493383020428232,0.17985610863584503,0.33853301427002025,-0.002902824608936818,0.10946862565182952,0.4983018037617389,0.007731393533024605,-0.12846088929832122,-0.07453693947210294
1.3930625915527344,-0.7158904883883394,3.1855131089144515,2.493326509394162,0.1818771855852981,0.3484809824972047,-0.0027483230519614065,0.0927730419132575,0.49639225877971943,0.007718118424808114,-0.1281200696998801,0.01704097992205611
1.4130520820617676,-0.7139500642015439,3.1890776196938995,2.4933415689685074,0.185915033907318,0.3550062929116216,-0.0014701402326285956,0.07044704950055763,0.49442124899857676,0.007620733740383975,-0.13028739033530456,-0.10836603177122317
1.4331130981445312,-0.7102191136079368,3.1962764689656353,2.493313683764874,0.1871088599564521,0.3648701061925172,-0.0013187082932905145,0.04909718948239804,0.49186298437985443,0.007522285481983398,-0.129165576538381,0.05609068984617771
1.4530928134918213,-0.7062961651386301,3.2037657229337424,2.4933522026113284,0.19215004546461315,0.37701644846002885,0.00041269550303333046,0.028928957724161167,0.48661881596521095,0.007315828219433534,-0.13275017865102656,-0.1792301056322776
1.4730565547943115,-0.7004205857770361,3.2153604615134026,2.49340882975886,0.19562701687879105,0.3934063200970237,0.001797429845907744,0.009688665930366012,0.47692373257503323,0.007030853224733337,-0.13187144579088983,0.04393664300683664
1.4930360317230225,-0.6965073473075067,3.2233233123856015,2.4934461657855125,0.19563556291534148,0.4028455236042901,0.0019352400453481887,-0.008691668141158343,0.46695076998952884,0.006751020351319369,-0.13381043441555107,-0.0969494312330621
1.5131301879882812,-0.6924749738446367,3.23158026560408,2.4935452295014455,0.19832678574159496,0.4147947294081537,0.0035315807421138984,-0.024695680237012508,0.4562415020178676,0.006381591374734751,-0.13402114809425436,-0.010535683935164464
1.5330798625946045,-0.688514405783979,3.2399666828700515,2.493617113212297,0.19767922997694629,0.42381052386622037,0.00365558596699655,-0.03993295388320055,0.44529958906848177,0.006020277306792542,-0.13513319089600895,-0.055602140087729346
1.5531694889068604,-0.6864724415608385,3.2443042104974382,2.493689093637666,0.19911845839257458,0.4303938703497988,0.004708238091503616,-0.04403797360313684,0.4368045975990061,0.005610022338986574,-0.1351839904846046,-0.0025399794297831235
1.5729284286499023,-0.6804649429039314,3.2574959421061243,2.4938645066221183,0.199219896750461,0.44576599782196,0.005769069131973883,-0.04954013620762454,0.4246040838704638,0.005148550436570501,-0.1377671802976863,-0.12915949065408494
1.5930945873260498,-0.6764908037994617,3.266495357780112,2.4939808875311233,0.19817673825807386,0.4541341216647282,0.005867522212744552,-0.054722842113401726,0.41216980300121436,0.004698681731762218,-0.13708806808431495,0.03395561066856789
1.6132800579071045,-0.6744897058417482,3.2711333312664523,2.494067778178902,0.19817039389891325,0.4603177421918274,0.0067032579847109315,-0.05836857433875828,0.4008188555190965,0.0042192217447336745,-0.13865333454541284,-0.07826332305489458
1.6332314014434814,-0.6705382004555708,3.280419079365318,2.494202655849935,0.19696894176703536,0.46821831498256516,0.006782952924156187,-0.06172953078753497,0.38919314493269797,0.0037523612589801312,-0.13922921176671954,-0.02879386106533488
1.6531047821044922,-0.6666129088266931,3.2899838558552807,2.494376621654288,0.19560085811359665,0.4789494233656109,0.007779727227271606,-0.06269773547259529,0.3771366372776334,0.0032443869450981423,-0.1405212237896083,-0.06460060114443777
1.6729300022125244,-0.6607947950961579,3.304596610352414,2.49463249306241,0.1930405119831692,0.49227772233872785,0.008467088004673537,-0.06637401232991105,0.3650489741199498,0.0027113193814967845,-0.14254948964436176,-0.10141329273767319
1.6930851936340332,-0.6569474907904849,3.314514357714705,2.494802342300814,0.19167859264995082,0.49945598850887113,0.008516109020895652,-0.06977186162726683,0.3527414497700658,0.0021932722564144383,-0.1431957845771974,-0.03231474664178169
1.713134527206421,-0.6550664530119527,3.3195904916662164,2.4949056009835986,0.19001153594493084,0.5046887720782303,0.00904145180367643,-0.07377819047104897,0.3409434851532553,0.0016700083351667019,-0.1434718397825958,-0.013802760269920888
1.7329564094543457,-0.6512812300906711,3.3297516584183127,2.495086729898037,0.18849839498427493,0.5113878553391291,0.009069746081436224,-0.07748662361431699,0.328929235968186,0.001161937984990146,-0.1461118556498544,-0.1320007933629297
1.753159999847412,-0.6475795829859148,3.3401441070143263,2.495291907677976,0.18556442492780897,0.5202905024455355,0.0096681562931456,-0.08371534892465193,0.31418314306251316,0.0006405361897841639,-0.14581581252480635,0.014802156252402554
1.7730083465576172,-0.643885433318499,3.3506117656087615,2.4954853649336908,0.18383107600238674,0.5264258711822478,0.009675883375264947,-0.08955518331463272,0.2993374646490367,0.00013476239014683508,-0.14929070747826678,-0.1737447476730214
1.7931139469146729,-0.640281237502369,3.361289904616758,2.49569807887074,0.1806264058922258,0.534500322308173,0.010145607811224436,-0.09644699653239137,0.2816127078634619,-0.00037619804665688577,-0.14836264483031325,0.04640313239767657
1.81304931640625,-0.6367073546807586,3.372068662927572,2.495906883502854,0.17799789651465292,0.5410751552672722,0.010331944149728704,-0.10372611551771029,0.26362158390436796,-0.0008789473400040097,-0.15250563534796902,-0.20714952588278823
1.8330528736114502,-0.6331686065907272,3.3829416947301083,2.496113313869692,0.17585402334654057,0.5461683079168914,0.010309469283464231,-0.11059295078964908,0.24570649061224595,-0.001365925442729015,-0.15150205989725363,0.05017877253576941
1.8532028198242188,-0.6297184411189076,3.3940054375307667,2.496332854995921,0.17245740342104388,0.5532140875385584,0.010611865487735704,-0.12061756949643056,0.22715708879541638,-0.0018483373790731262,-0.15576900518066505,-0.21334726417057137
1.8730862140655518,-0.6262940589235542,3.405113920793363,2.496544691258756,0.16994912749264893,0.5575728558138587,0.01057020476459409,-0.13012426912056932,0.208742230169257,-0.002315149688819814,-0.15470905304467486,0.05299760679950971
1.893127679824829,-0.6229518775022617,3.4163981548991136,2.496766358704167,0.16668573942652964,0.5637397547313224,0.01078313788877481,-0.12137651756184535,0.17535535575282216,-0.0027727115910109556,-0.15935255683267702,-0.23217518940010784
1.9131269454956055,-0.6180303016666586,3.4334541659482722,2.497094281809144,0.1621596278000496,0.57062689773479,0.010855549768813227,-0.13984208687754449,0.14566622469465232,-0.0032214413409582155,-0.15973981404612303,-0.01936286067230064
1.9331579208374023,-0.6148162612321659,3.4448938926655535,2.497310719363437,0.15918601366987822,0.5732491265850106,0.010786760647081483,-0.1573628847892539,0.11667188790038888,-0.003654948278939825,-0.16318712066081664,-0.17236533073468063
1.953122615814209,-0.6132565721145401,3.450696801532051,2.497422810386938,0.15682626513777442,0.5759876140526693,0.010870713181761594,-0.17112240452692126,0.08485230218360712,-0.004069115375800381,-0.16106270748675122,0.10622065870327102
1.9729337692260742,-0.6101551483360488,3.4622314434771018,2.497639383944446,0.15327292656849076,0.5773732119570726,0.010785310472956179,-0.18407842525980686,0.05384161578488697,-0.00446874700113583,-0.1674221224410406,-0.31797074771446887
1.9930870532989502,-0.6071164863775405,3.4739303128786054,2.4978600395921866,0.14993914075333403,0.5816596228002324,0.010835252896643327,-0.1790106804298299,0.013642282687321523,-0.0048521813361682015,-0.1640706094604787,0.16757564902809552
2.013061046600342,-0.6026921358307963,3.4914878882494564,2.498185807071986,0.1446551187619885,0.5848502622802003,0.01076833046543307,-0.18712956020595095,-0.0009323236816023929,-0.005221776411144903,-0.17404550743601765,-0.4987448987769483
2.033102512359619,-0.5998369731479418,3.503183740990765,2.498400105373553,0.14083591496064415,0.5846868035767369,0.010660313446734805,-0.1947000556782674,-0.0153947930300124,-0.005577652478025329,-0.1664775295659484,0.3783988935034621
2.0530996322631836,-0.5984433302360758,3.5091073029340687,2.498507998330697,0.13868017691014925,0.5865655634457188,0.010642486060622463,-0.2008977987821532,-0.02776722242258398,-0.0059117458856523,-0.17742785760711888,-0.5475164020585233
2.072913885116577,-0.5943770040637303,3.526743470333489,2.4988250893927924,0.1325349302042727,0.5868059597610606,0.010473578015239017,-0.2012545937998637,-0.068198491586657,-0.006227852821058394,-0.17068372511745666,0.3372066244831107
2.093078851699829,-0.5917665599371408,3.5384633194183945,2.499033294936955,0.12850963872647592,0.5850485046692435,0.010345964522400351,-0.2012078173154441,-0.10733195781812616,-0.006531418919052246,-0.18300531840062106,-0.61607966415822
2.113276958465576,-0.5892546599227769,3.550204907386808,2.4992389182231087,0.1240091680117071,0.5842338171876063,0.010209934970210593,-0.20049013239141536,-0.144492190406409,-0.006811751026024235,-0.17231931324874905,0.5343002575936007
2.1330668926239014,-0.5868145049925493,3.56185826968197,2.4994417364702506,0.12001016410838919,0.5809826541510383,0.01007099435407038,-0.19933851982096457,-0.18041988217167965,-0.007080370390364942,-0.1896045271647817,-0.864260695801633
2.153096914291382,-0.5856442341897391,3.567724687575586,2.4995407467887993,0.11740505893677755,0.5809736705115414,0.009955728832273848,-0.2035500516342833,-0.18884974302976343,-0.007325643672826087,-0.17047525407420983,0.9564636545285943
2.1729347705841064,-0.5822356649973277,3.5851469413894383,2.4998311555222674,0.11064747662166713,0.5772578421843394,0.009579969598890577,-0.20701646361766488,-0.21290377940491034,-0.007543643106450926,-0.20048716499934693,-1.5005955462568554
2.1930325031280518,-0.5800643210448121,3.5966479485366003,2.5000212321598285,0.10647728034254395,0.5727649998233094,0.00942700126693264,-0.20990809537688013,-0.23626571339108743,-0.007751512293627753,-0.16907123846344918,1.5707963267948966
2.212979316711426,-0.5780040020746294,3.608119275850798,2.5001843068715384,0.1017076041597022,0.5692970722203033,0.008967355926974738,-0.1989426951729494,-0.2655009796395945,0.03532547182293304,-0.20048716499934693,-1.5707963267948966
2.2330737113952637,-0.5760089100305197,3.619450213703046,2.5003735037563852,0.09783798261047555,0.5637022989432049,0.010090123696292794,-0.18802800634592365,-0.2938253639212057,0.07666316108302332,-0.17577484736186433,1.2356158818741303
2.253094434738159,-0.5753460098192182,3.6234085596402448,2.5004099125985597,0.09619243738156083,0.5619803220693909,0.009951106529838737,-0.1637509863808884,-0.3164576790023282,0.12133453933692431,-0.20719077389776208,-1.5707963267948966
2.273005962371826,-0.5734533210906597,3.634583400053443,2.50063608543315,0.09315547527286974,0.5554305633563943,0.01280880572516011,-0.14003896094326213,-0.33840457025036563,0.16412355923439112,-0.17577484736186433,1.5707963267948966
2.293041944503784,-0.5717114622778338,3.6456838601170367,2.5007717394587563,0.0879947862153125,0.5500146590755183,0.012505483225194673,-0.12493269850581877,-0.35063103270824364,0.20316761038274847,-0.20719077389776208,-1.5707963267948966
2.3130764961242676,-0.5700277916117706,3.656629100701019,2.5009985976359865,0.08400727407351963,0.5434583300728127,0.014752382105862319,-0.09576061855919527,-0.3545022316200567,0.24349838810942964,-0.1812913167168051,1.2949728590478493
2.335686445236206,-0.5683648895729193,3.6674271087980106,2.5013449422699106,0.08237776495594638,0.5363295773770902,0.020010434018849336,-0.06730996149249834,-0.358372895776503,0.28200458323397243,-0.21270724325270285,-1.5707963267948966
2.353085517883301,-0.5668978409521362,3.6780792113592202,2.5016292615831714,0.07699064592410054,0.5289263741603747,0.02124885415239475,-0.040533455991005836,-0.36014624287204305,0.2659127912862602,-0.18250517794478371,1.5101032653959567
2.372929811477661,-0.5647310768176497,3.6937426531365385,2.502309730358707,0.07251114495168341,0.5168597039098437,0.027040285993469745,-0.004708349006467243,-0.3593816631058305,0.2502721607204293,-0.21392110448068147,-1.5707963267948966
2.3931243419647217,-0.563279453227014,3.704008011599286,2.502899567239599,0.07276757006774126,0.5096780087260357,0.031892560655786,0.030198589072297354,-0.35882170376644174,0.2350196623725661,-0.19168560952162395,1.1117747479528761
2.4132046699523926,-0.5626721232796772,3.709019093753439,2.503201393918994,0.06978117746411062,0.5040886404507686,0.03334635453208797,0.052072729323524004,-0.36246722012110894,0.22056237971332882,-0.2231015360575217,-1.5707963267948966
2.4330811500549316,-0.5612646499505307,3.719028129053222,2.5039114878730273,0.07103753488580618,0.49680266948722823,0.03761606194417021,0.0734866235883094,-0.3661332178203946,0.20646863902306864,-0.19168560952162395,1.5707963267948966
2.4531147480010986,-0.5600475133848849,3.728772723719014,2.504723123075201,0.06725807750214591,0.48646898232335906,0.04212740699053561,0.09145035888894024,-0.37370208921753695,0.19289622967127046,-0.2231015360575217,-1.5707963267948966
2.472999095916748,-0.558682881667912,3.738426865566405,2.5056033630423524,0.06926380870044446,0.4789204529698492,0.045852507263820806,0.10906475371695562,-0.3811269429426051,0.1796714310948391,-0.19412393110529713,1.4488802476112284
2.493027448654175,-0.557455899611206,3.7478247781236718,2.5065855732548585,0.06731932547683757,0.46875396089344995,0.050113693128886944,0.1424498275218111,-0.37898048426432696,0.16693184689496135,-0.22553985764119489,-1.5707963267948966
2.5130343437194824,-0.5561382623058896,3.757088488258827,2.5076344931009977,0.06846628033842117,0.46001391683347453,0.053796372565685535,0.16929516951426984,-0.37509975031710346,0.15459019320804537,-0.1995420795514189,1.2998889044887996
2.5330891609191895,-0.5547333229711985,3.766213988973747,2.50874053211482,0.07211480777391446,0.45254800004031503,0.05676747509900959,0.19544167767560744,-0.37154606063318174,0.142574020680036,-0.23095800608731665,-1.5707963267948966
2.5530807971954346,-0.5534092424573753,3.7750807288134838,2.50994675440402,0.07232612497052804,0.44238234550995803,0.06060628606883774,0.22279309253532997,-0.3639137278154823,0.13099804648300417,-0.20046524826571233,1.524637891080216
2.5729575157165527,-0.5519163760145643,3.7838560773859578,2.5111843236127327,0.07704915411370124,0.43517632824944996,0.06311308732796903,0.24938366323948294,-0.35676866526213197,0.11973374881792122,-0.23188117480161008,-1.5707963267948966
2.5931236743927,-0.5512337284534168,3.788104028501493,2.511848132635858,0.07688584192724066,0.42925698274806395,0.06496370896552328,0.2703477530071216,-0.34199745257682646,0.10901237012172774,-0.20538050620628656,1.3250334297661759
2.6132166385650635,-0.5480966444558628,3.804843878983595,2.514577129611785,0.0841861042237123,0.41177040601279835,0.0702862203289664,0.2954621700744148,-0.3272667035654655,0.09842665403943594,-0.23679643274218432,-1.5707963267948966
2.6330912113189697,-0.5463521910625802,3.813014776056938,2.516001848405733,0.09034059180690299,0.40536575819593446,0.07215135660045258,0.3198692992466399,-0.31332946889776614,0.08813586126955802,-0.2113805063870804,1.2707963177551962
2.6531155109405518,-0.5454954044236565,3.8169509678914526,2.5167464736371383,0.09202603717146778,0.39942966322939377,0.07346175454448052,0.34689520955023984,-0.3013231595776168,0.07836852178162917,-0.24279643292297814,-1.5707963267948966
2.672985792160034,-0.5435837435119313,3.8248800619857177,2.5182307451954906,0.09922743756387475,0.39351744087524637,0.07493377002723883,0.373110419739191,-0.290014603202849,0.06887909221568733,-0.2113805063870804,1.5707963267948966
2.6931614875793457,-0.5426390991487685,3.8286901026883977,2.5190072244668418,0.10126359426699567,0.3875271951606759,0.07620593697602895,0.3919469227588082,-0.2841834984595981,0.05987004974865774,-0.24279643292297814,-1.5707963267948966
2.7132515907287598,-0.5405342102689853,3.8363841757079364,2.520542729742961,0.10928620762208743,0.3818980184262505,0.07731543445734644,0.41022119315061434,-0.2788099040111716,0.051123148076957926,-0.2177954380284559,1.2500497447261116
2.733133554458618,-0.5372153574175902,3.8474956718634847,2.5229312503699775,0.11874354206383052,0.36889295611133077,0.07977193715326451,0.43620805050860917,-0.2653170379455665,0.04268930943140499,-0.24921136456435367,-1.5707963267948966
2.753098487854004,-0.5347762294146879,3.8547740816527543,2.5245455686865235,0.12688966189507403,0.36213730793725996,0.08090954559644616,0.46003642404027895,-0.25324435086642944,0.03457176559600593,-0.22424421747816226,1.2483573543095705
2.772972345352173,-0.5307994859667847,3.865446530756142,2.5270037793459883,0.13988812704682715,0.3525177258385141,0.08231926908442438,0.4875905046925376,-0.23097197774065722,0.0267099730067143,-0.25566014401406,-1.5707963267948966
2.7930707931518555,-0.5279024161535472,3.872452117330117,2.5286549946791896,0.14990752165214954,0.3481112883481616,0.08277686210071085,0.5141908947187284,-0.20986468824660706,0.019089287351631182,-0.23330715206818198,1.1176495972939016
2.813227653503418,-0.5264015221028616,3.8758470280752886,2.529495479990289,0.15455840831539752,0.34399306588684364,0.08322525439781342,0.5341114465290805,-0.1924634616304688,0.011897849381340916,-0.26095308704740106,-1.382296748960954
2.833137035369873,-0.5232022401346873,3.882689507342124,2.5311618965673213,0.16543375925151446,0.3403095748686816,0.08339318721494557,0.5533028102809606,-0.17604902378651008,0.004932979391975636,-0.2389968482426097,1.097811940239568
2.853055715560913,-0.5198360627499147,3.889314662769416,2.532858281919362,0.17535138335872424,0.3332332221361022,0.08413315616387707,0.5693245048969725,-0.16601590574860028,-0.0016850781632406994,-0.269809086466382,-1.5406119111886163
2.872927188873291,-0.514336961259994,3.8991532322207827,2.5353984496930013,0.19211400208742413,0.32606735999661557,0.08449551875858026,0.5866034236847549,-0.14669269811535815,-0.008061981889283613,-0.2519900209983539,0.890953273401407
2.893071413040161,-0.5103762433332474,3.9056464760592258,2.5370863330698183,0.2040130756235505,0.32331790522953935,0.08427226311793615,0.6031890720092337,-0.1284280530309916,-0.014228763822075408,-0.2777224202981765,-1.2866199649911314
2.913086414337158,-0.5061681730053998,3.911987874446157,2.538790900374888,0.21640848229573612,0.31836115609524374,0.08450173072509266,0.6160645103418674,-0.12031120925397727,-0.02006031772132021,-0.26339775198179183,0.716233415819234
2.9332141876220703,-0.5017159601045968,3.9183315424916043,2.540476544096092,0.22885386171134287,0.316030445083723,0.08404386451124077,0.6283808005110684,-0.11287206334895161,-0.02569342148262448,-0.2857608968462966,-1.1181572432252374
2.9530835151672363,-0.49937830217279444,3.921434226686125,2.541333777137145,0.2357486216944077,0.3135005419696135,0.08425978753077898,0.6366533263527222,-0.10860889642865076,-0.03099313655218387,-0.2710238790947632,0.7368508875766677
2.972939968109131,-0.4919963803706639,3.930754817119711,2.543870113494999,0.2556014543094498,0.3093094395899753,0.08392919700937307,0.6443804903427583,-0.10426837987566015,-0.0360765111113481,-0.2992759177249553,-1.412601931509605
2.9930858612060547,-0.48675498121482225,3.936920415051309,2.5455411523732305,0.2685628094304971,0.3072630553762135,0.08315835402442565,0.651685025444348,-0.10045771013267932,-0.04097758395922212,-0.28422484546835713,0.7525536128299093
3.01305890083313,-0.48119349706715453,3.9430267262466594,2.5472195736741283,0.2831737806895122,0.3048689956419426,0.08287619510156417,0.656302853440873,-0.09826814633106047,-0.045580711584790747,-0.30795265831235374,-1.1863906421998305
3.033104419708252,-0.47539847012783837,3.949104575415831,2.548867683155382,0.29634316803223204,0.30292168402551356,0.0819199814255853,0.660579364434072,-0.09653920509911182,-0.050012225380143445,-0.29767540331208764,0.5138627500133053
3.0531222820281982,-0.4723509538234073,3.9521342191003095,2.549698291932767,0.30445829211268793,0.302118004667251,0.08177963901223355,0.6636663179613613,-0.09873001262486825,-0.0541541330923773,-0.3118819713459753,-0.7103284016943823
3.073051691055298,-0.46612886361388023,3.9581566716212175,2.551322785825154,0.3177600409336119,0.300118912730608,0.08065648069122604,0.6664600107146802,-0.10123033397201107,-0.058135026297071665,-0.30995296777161396,0.09645017871806605
3.0931484699249268,-0.4628601888468847,3.9611712221010613,2.552144888841784,0.3261299123858468,0.29963695828471537,0.08056977983179113,0.6708955867358651,-0.10433539947283052,-0.06185505751042971,-0.31704807101731225,-0.3547551622849143
3.1131796836853027,-0.4527142209411029,3.970147912944977,2.5545578257434642,0.3478821092339654,0.29750635908007467,0.07936150698741774,0.6586385484174251,-0.10582088044385264,-0.06538170571304067,-0.3262920111834391,-0.462197008306342
3.1330525875091553,-0.4456256628904221,3.9760767598079694,2.556131751795753,0.3609331917022871,0.29537223766377785,0.07801983280874396,0.6464873034205577,-0.10764764822897965,-0.06876136586510498,-0.32852365714951226,-0.11158229830365851
3.1531083583831787,-0.4381618012640301,3.9820294013619337,2.5577127171561536,0.37677335146767377,0.29484071903811676,0.07747162076998358,0.6364126034458413,-0.11622206986283685,-0.07190913287118085,-0.33667547890220995,-0.4075910876348843
3.172938108444214,-0.42647371384911575,3.9908749952667453,2.5600248214515338,0.3985828446988593,0.29281795274708955,0.07586238935269884,0.6221328690447789,-0.123514920454749,-0.07486480293971005,-0.34470881330421443,-0.4016667201002244
3.1930177211761475,-0.41837857343582824,3.9967061582607313,2.5615269059311414,0.41088419218081285,0.29027357966782963,0.07433665211256496,0.6080315155747635,-0.13094495653224195,-0.07768677975997208,-0.3477525347032122,-0.15218606994988892
3.213090181350708,-0.4141342038449983,3.9996612171940247,2.5622821877632624,0.4198018321096877,0.2906477603114629,0.07397969678164959,0.5870727757690952,-0.13137791851459954,-0.08029427032741512,-0.3501928061359063,-0.12201357163470483
3.233133316040039,-0.40562213087643595,4.0054478515701755,2.5637455552892985,0.4313368688124504,0.2880131444928426,0.07234878192099359,0.5664939414024953,-0.1321376701157237,-0.08277646737243322,-0.35713474156811387,-0.3470967716103779
3.25321626663208,-0.3966895290714147,4.011277793993863,2.5651982616063345,0.44730977736009153,0.2877529800570843,0.0712195371179057,0.5402752038567655,-0.1306305067140966,-0.08503717617667395,-0.36100598350110236,-0.19356209664942448
3.2729456424713135,-0.38288951206125355,4.019902677308476,2.567307668598948,0.46722448289028257,0.2852826694165655,0.0689620586098458,0.5121598650305279,-0.12884722161537257,-0.08710461589287208,-0.3711198917158942,-0.5056954107395928
3.2930753231048584,-0.3734444330857676,4.025582660575926,2.568669356618623,0.47719180739633466,0.28272030033070883,0.06720022454305456,0.48467758423252494,-0.12745421772373763,-0.0890602847588688,-0.3716602318338671,-0.027017005898644086
3.313028573989868,-0.3638054621790596,4.03121164935336,2.5699954242011103,0.4866157657653566,0.28018194012205366,0.06540038256268045,0.45782222930047534,-0.1264453016664421,-0.09090565214645441,-0.37893921094940186,-0.36394895577673836
3.333082675933838,-0.35861972013725635,4.034085270612988,2.570659445351794,0.4975025650748677,0.28060325938656333,0.06478118518446971,0.42392611346064035,-0.12391649910519388,-0.0925098456651259,-0.3786130324238961,0.016308926275288016
3.3529725074768066,-0.3433442274092485,4.042471781673526,2.572566080788448,0.5146878969102702,0.27760201898553144,0.06212773835893733,0.4139858842396594,-0.11927794534640049,-0.0939235167559576,-0.3907067459613822,-0.6046856768743059
3.3729817867279053,-0.33296832682679534,4.048000252433539,2.5737897613515632,0.522869569875345,0.2752589708658405,0.060235921385892184,0.40420842284989844,-0.11510367603448482,-0.09524250828117585,-0.38912710005264195,0.0789822954370134
3.3930325508117676,-0.3275865596518687,4.05076418961767,2.5743891012704965,0.5306135893584535,0.2745628919488047,0.059318741340154545,0.4030780829591371,-0.11768815357884783,-0.09639435451910534,-0.39459925279676655,-0.27360763720623016
3.413198947906494,-0.31689375420527066,4.056231726889468,2.5755561248304186,0.5386627483425315,0.2721815128927925,0.057380067518727075,0.4018160283945573,-0.12048479082785557,-0.09745851484579257,-0.39769206683839364,-0.1546407020813545
3.433018445968628,-0.30590090990888863,4.06166808945843,2.576688296570102,0.5500056401770681,0.2700995182518748,0.05552927000320919,0.40442967008367026,-0.13326635245428195,-0.09832868713198827,-0.40324300577741434,-0.277546946951035
3.453582286834717,-0.2891798913525362,4.069731925830542,2.578313735766867,0.5631639524154608,0.2666123514168403,0.05268275415982323,0.40340239375701914,-0.14707106908416326,-0.09902544347267984,-0.40996113113855026,-0.3359062680567959
3.473134756088257,-0.27783600873666714,4.075033848132366,2.579347543065005,0.571220324380819,0.2635345160335139,0.05069590290249949,0.4022069999120016,-0.16067990522797765,-0.0996472869292116,-0.41255525127602066,-0.12970600687352007
3.493051767349243,-0.2720933539615606,4.077693473131141,2.57985299849496,0.5755341245532904,0.2627128561740165,0.04979261390208869,0.40666076134480234,-0.17974975815987979,-0.10014175642841251,-0.41404964006171463,-0.07471943928469837
3.513064384460449,-0.2605010627648917,4.0829105294472186,2.5808287929242972,0.5837084859972411,0.2589305720921877,0.047785411475267235,0.41070812070268387,-0.19841082117103656,-0.10056704034001354,-0.42068449187748813,-0.3317425907886751
3.5330817699432373,-0.24875920429088932,4.08814141564623,2.5817701907078376,0.5915695022766483,0.2572393821790918,0.04591739830638778,0.4207331741334679,-0.20937117410952946,-0.10082981513071801,-0.4224752313813043,-0.08953697519080706
3.55295991897583,-0.23206113632075448,4.09532688675838,2.583019734215789,0.6022887319908092,0.25338062540148726,0.04319298967386667,0.40596204145881964,-0.19577293013512687,-0.1009465758421764,-0.430898526892451,-0.42116477555733667
3.5730438232421875,-0.21993514477772108,4.100356209395828,2.5838633998159963,0.6102618005591671,0.24959418225333443,0.04117337445862639,0.3913754991991025,-0.18300956369138463,-0.10100535726361266,-0.4326712000356232,-0.08863365715860994
3.5929906368255615,-0.2138477646683396,4.102886113973407,2.5842731559615,0.6132614948008717,0.2488379585258238,0.04024765914537105,0.3992426286917202,-0.19272728616632145,-0.10096681795409708,-0.43433859063206937,-0.08336952982230805
3.613027811050415,-0.20150218875972833,4.107823682901685,2.585057921018259,0.621320523952352,0.2448867463315029,0.038229152480597065,0.4065711171632852,-0.20238366917295816,-0.10087504699816213,-0.44081591939062115,-0.32386643792758907
3.6330196857452393,-0.18903482737730598,4.112691922575001,2.5858052675924905,0.6284244399708677,0.24100650784534278,0.036283640493771224,0.41321849485578727,-0.21467480383673435,-0.10064167002683716,-0.44374954824397417,-0.14668144266765104
3.6530017852783203,-0.1700431025120875,4.119839719857329,2.5868500131535854,0.6395069590605221,0.23495179935210675,0.03331233860908596,0.4199810012287465,-0.2200005824119845,-0.10026602045003365,-0.4529347412056688,-0.4592596480847311
3.6730475425720215,-0.1571685419998819,4.1244943966731675,2.587496233899961,0.6479699235556206,0.2304978637662567,0.03131113018955946,0.42623053660134375,-0.22540608662208372,-0.09984778419644431,-0.45464252258285764,-0.08538906885944275
3.693066358566284,-0.15072570231289134,4.126808024639754,2.5878059036700742,0.6505952861230057,0.22873059951840585,0.03035911066562373,0.4310346605625434,-0.23586348801266624,-0.09935738745278813,-0.45683263757245474,-0.10950574947985459
3.7131476402282715,-0.1376272928975537,4.131334772717919,2.5883932490385715,0.6592601046046321,0.2239097465210674,0.028377189828593233,0.4353695288272252,-0.2462020261088811,-0.09882830544714867,-0.46344794827602254,-0.33076553517839
3.7330331802368164,-0.12445863666271369,4.135807022802527,2.5889430082324765,0.6653752141716318,0.21996886053873,0.026455505155575636,0.43450913764430826,-0.25990371833364007,-0.0981806525731965,-0.466085246616073,-0.13186491700252212
3.7530157566070557,-0.1110643005356513,4.140153516948831,2.5894525270540223,0.6740546907698175,0.21463562282256954,0.02449864702768817,0.43339687438593394,-0.27338312250070107,-0.09749965427230531,-0.47263816404811365,-0.3276458716020336
3.773024797439575,-0.09758506782316133,4.144440298439577,2.589924573474696,0.680589514111559,0.21028029969168427,0.022593772073301106,0.435691624675567,-0.2874796415141818,-0.09670855165591125,-0.47562185399170875,-0.14918449717975513
3.7929983139038086,-0.07701616296349845,4.150653708702272,2.5905595031324684,0.6922844610654231,0.20253380128240603,0.01971858211707144,0.4222007712049793,-0.2997551441952099,-0.09579726734015422,-0.48560416256697003,-0.4991154287630639
3.813157558441162,-0.0630869294648299,4.154643621916238,2.5909347772865687,0.7005941538832426,0.1964170406536888,0.01781195153226567,0.4087803090696689,-0.3118989842069969,-0.09486180409515285,-0.48762057842262374,-0.10082079278268541
3.833101272583008,-0.05609019808347486,4.156621687033657,2.5911083933014996,0.7037299209254453,0.1939882587712549,0.016875233763916826,0.3913317173313995,-0.32894314634291183,-0.0938846285450282,-0.49004660087465357,-0.1213011226014915
3.8529627323150635,-0.03479731387618252,4.162332791463125,2.5915715796732526,0.715618898538747,0.1851595617053778,0.014044558602709896,0.38734771784665695,-0.3399434863223038,-0.09279431293965389,-0.5009003644224905,-0.5426881773918479
3.8729872703552246,-0.020407746332885786,4.165967265976346,2.5918339855411414,0.7233236200776496,0.1782515773437284,0.01219972041932846,0.3830770887206386,-0.35083716689780725,-0.09168665020658634,-0.5026700924220089,-0.08848639997591778
3.893254518508911,-0.013144419072270494,4.167765668454559,2.5919501885216767,0.7273283829084265,0.1755726441799069,0.011256903363246496,0.3669396044055828,-0.3635162674676713,-0.09054684545452862,-0.5054995755545182,-0.14147415662546514
3.913135290145874,0.001474469460511538,4.171203581770018,2.592157293953034,0.7345072642699025,0.16817702057276324,0.009457488682827165,0.3509777665175401,-0.3760163189024234,-0.08939217901006276,-0.5126137599050171,-0.35570921752494655
3.9330456256866455,0.014781203514147941,4.174219964079205,2.5923106651563574,0.7415117858905658,0.16255269053419039,0.00779729613242286,0.338946726479549,-0.39146882537554256,-0.08816488900266736,-0.515561892503233,-0.14740662991079567
3.9529478549957275,0.037212638455578165,4.178955444520795,2.5925029960549892,0.7525126989053778,0.15183153738399277,0.005109828052315126,0.3229683007674266,-0.38765980049274934,-0.08683791713035477,-0.526770957912317,-0.5604532704541976
3.9731225967407227,0.05232643201501285,4.181914777913093,2.5925879138702346,0.7588141383555593,0.14411321262396704,0.0033864014236492028,0.3072126755917233,-0.3842364693737446,-0.08550353688000002,-0.5285556645438176,-0.08923533157503272
3.993032217025757,0.05996726025868135,4.183353368182056,2.592615326435577,0.7630049119862349,0.14074154244730977,0.0024773680193245625,0.3134072039220503,-0.37840722869062704,-0.08415255180106908,-0.5317052693244082,-0.15748023902952824
4.013153314590454,0.07529042963339044,4.186092883675293,2.592648133628832,0.7693311252193679,0.1332279389195203,0.0008078729617146544,0.3191372298311223,-0.3730275086106624,-0.08279605987064408,-0.5384418225653911,-0.33682766204914394
4.033134460449219,0.08303935744605677,4.1873936313613385,2.592648576854968,0.7735179809835616,0.1291739394594712,-0.00010692929155722752,0.3081697592118343,-0.36161804727560354,-0.08142399016087368,-0.5388268549433244,-0.019251618896665157
4.052968740463257,0.11425538624359202,4.1922033979873286,2.5925730598533896,0.7866051850171222,0.11305440955942252,-0.0034979413790151635,0.31773926917433487,-0.34836131954221583,-0.07990681260640643,-0.5564820744881009,-0.8827609772388278
4.073023080825806,0.13005164530941998,4.19439565944562,2.592487220730459,0.7930505933254882,0.10621338009387525,-0.005080918946837316,0.3267009329094405,-0.33586799992869526,-0.07839122572668314,-0.5537636496467262,0.13592124206873724
4.093008756637573,0.13799667584606637,4.195380949272312,2.592427093353855,0.796251587666356,0.10118846412406095,-0.006017775026535166,0.32981815120927777,-0.32773247559396695,-0.07686828304442943,-0.5604479809128482,-0.33421656330610006
4.113176107406616,0.1539878599787318,4.197339684555369,2.5922914655726004,0.8028759478486036,0.0947101949364116,-0.007539936946231189,0.33255491757680494,-0.32019311064651285,-0.0753484401415133,-0.5643003755479654,-0.1926197317558609
4.133036375045776,0.17007372089873943,4.1990530558379024,2.5921160065731113,0.8085528754475122,0.08548695713433681,-0.009263130242228483,0.3330984489705618,-0.3082201654592931,-0.07376916540647696,-0.5713236824097301,-0.35116534308823333
4.154982089996338,0.1863114198314128,4.200701912782716,2.591916095108281,0.8152178648568419,0.0794362276187932,-0.010722772846007969,0.33335263323436554,-0.2969729208383514,-0.07219614922090307,-0.5746893264282908,-0.16828220092803825
4.173120737075806,0.19445346981493647,4.2014047938023165,2.5918013380120604,0.8178456119781546,0.07435753550829616,-0.011540409139869177,0.33972476232184007,-0.2882192515485355,-0.07062728991268007,-0.5775440061577548,-0.14273398647319802
4.1930177211761475,0.227397936374579,4.204023742704346,2.591277562431925,0.830421744825174,0.05977082813074765,-0.01448561051417502,0.34210228894862477,-0.2857272359807118,-0.06893746908951488,-0.5922994869059384,-0.7377740374091779
4.212955474853516,0.24407493080253742,4.205162159917419,2.5909741747855546,0.8372843304780733,0.05407786693201971,-0.0158475612142764,0.34409213570447805,-0.2836350079039542,-0.0672595975276257,-0.590731356799922,0.07840650530082094
4.232997179031372,0.25243752490404253,4.205622751564499,2.59080897120967,0.8399425887226758,0.04942281314820332,-0.016607235320556395,0.3444786869650046,-0.2792494841640407,-0.06559635050106974,-0.5963143904188501,-0.2791516809464101
4.252989292144775,0.2777615604125642,4.206925090458076,2.5902774326370834,0.8494180409874681,0.03948854950706933,-0.018664649026266602,0.34112635703853345,-0.2817020156956489,-0.06387289649778204,-0.604636507455941,-0.4161058518545424
4.273005247116089,0.29481791190897594,4.20765834590249,2.589891479208066,0.8562051956719617,0.03382804574146098,-0.019925000110075627,0.33755252936598057,-0.28438670358455626,-0.062164767091248414,-0.6068917259390476,-0.11276092415533068
4.293287038803101,0.3119742268916653,4.2082229676111105,2.589478172241948,0.8620187607717179,0.026807987600332043,-0.021208739114264852,0.32613850648750464,-0.28844042914145945,-0.06043400093510936,-0.6134800557796147,-0.329416492028356
4.3130881786346436,0.3292790716811061,4.208701160126819,2.5890420251867643,0.8684278590250607,0.020997159727447454,-0.022400254318823552,0.3147807775804941,-0.29267164267228485,-0.058720375105190036,-0.6168221508307692,-0.16710475255772295
4.333035945892334,0.3379710348668088,4.208881097537886,2.5888145571091186,0.8711902402053553,0.017642643266992882,-0.022985857846756105,0.292304792573753,-0.2944253387522351,-0.05703573352262079,-0.6186915905081714,-0.09347198387010813
4.353011846542358,0.35545182638949546,4.209174938479456,2.58834354425336,0.8768156007451343,0.011734943990399026,-0.024109869684661594,0.27031132610999303,-0.29637735038990687,-0.0553683198500728,-0.6248792567791654,-0.30938331354970483
4.373055696487427,0.3642569663347008,4.209276432101681,2.5880985665177354,0.8800428305935235,0.008752555119762693,-0.024680358449790336,0.2476546507138209,-0.2965366915435474,-0.05372854186520543,-0.6248529896471209,0.0013133566022283105
4.392964124679565,0.3908323035738444,4.20941252651421,2.5873315137229307,0.8889964229304972,0.00034169692522601614,-0.026347482869513057,0.21136217106729416,-0.26171346295494013,-0.05204449003860066,-0.6355559551387571,-0.5351482745818092
4.412997484207153,0.40865213410516044,4.209369260075462,2.5867942664596852,0.8928689264177313,-0.004557536037482443,-0.027371695120568168,0.1760508682847431,-0.22847169037234386,-0.05037998876870051,-0.635933624239418,-0.018883455033047447
4.433015584945679,0.4266757390685626,4.20919642325015,2.58623290129748,0.899544391615543,-0.010008030182669546,-0.02847127591633205,0.1450466595900711,-0.19968087468361265,-0.04870131674933934,-0.6427470384538849,-0.3406707107233453
4.452956914901733,0.4538411229774756,4.2087285317708005,2.585352943156379,0.9069129130152273,-0.018134296904941866,-0.030030104760038232,0.11616995578551732,-0.18357232128243872,-0.046983644271963027,-0.6492123520615096,-0.32326568038123504
4.473001480102539,0.4720007256105543,4.208330161319339,2.5847430576904085,0.9089534579945207,-0.021651977653904222,-0.030952793107054215,0.0880021595873932,-0.16834094398821003,-0.045289023511704544,-0.6514250169718672,-0.11063324551787712
4.4930291175842285,0.4812016615071587,4.20802220712559,2.5844274590983844,0.9127730291544761,-0.025753071588644014,-0.03149963288907058,0.07787532007073233,-0.1774933089991452,-0.043626895705337294,-0.6543241982019503,-0.14495906150415738
4.513044834136963,0.4994720244079328,4.207471037325049,2.583788850726261,0.914229663913581,-0.029394385527818014,-0.03235574009402117,0.06779624253908605,-0.18663639976735674,-0.0419876251059421,-0.6587350786821,-0.22054402400748518
4.5331103801727295,0.5179297134314362,4.206757873171571,2.583127776526036,0.9193953425978224,-0.03518707520469863,-0.03331325306358074,0.06319346342124971,-0.19749098401351628,-0.04034161143611219,-0.6633167440674379,-0.22908326926689426
4.552957057952881,0.5456028273487779,4.205616655293535,2.582108861058656,0.923043325595106,-0.04109519473317593,-0.03454419012905818,0.06755474116234436,-0.21704117219531377,-0.038671184118877176,-0.6700312878352728,-0.3357271883917434
4.5730485916137695,0.5640774703772812,4.204750061548526,2.5814103531021275,0.9244338397305512,-0.0456279000085165,-0.03530112262567408,0.07141361989997652,-0.23615730242649463,-0.03702631214878768,-0.6726727433913813,-0.13207277780542537
4.593002796173096,0.5714947561713545,4.204409746758054,2.581127476304029,0.9252980788765444,-0.04687716594271207,-0.03555870941140684,0.044031205009015625,-0.2777274969579147,-0.03543333782857937,-0.6734674402414824,-0.03973484250505699
4.61320686340332,0.5900077340433247,4.203413951516538,2.580409320414235,0.9259108005390411,-0.05283660373443411,-0.03625165173815579,0.017358765597727692,-0.3180013854781774,-0.03386498640454513,-0.6803580698698792,-0.3445314814198408
4.6330766677856445,0.6085469737620531,4.202444801732241,2.579678468343086,0.9264996049715937,-0.055325840924663125,-0.036891421689104455,-0.01856860644680042,-0.331980444664526,-0.032306450835406744,-0.6819081425224356,-0.07750363262781779
4.653017044067383,0.6363811021299566,4.200766026062197,2.5785583671555776,0.927114506077238,-0.06178946528125658,-0.03781094422109106,-0.04803606070403304,-0.35662626178271734,-0.030735393058933965,-0.6908157986473209,-0.4453828062442655
4.6730828285217285,0.654911865427171,4.199457306253944,2.577796104614081,0.9258665867719518,-0.06916215164093754,-0.038410160697578404,-0.07660727869242964,-0.38051722239620805,-0.029190620853566003,-0.693716546023385,-0.1450373688032025
4.69298529624939,0.6642291295716122,4.198864574348174,2.5774125475066576,0.9267456595889942,-0.06978340574862325,-0.038632106155570486,-0.0934789332691921,-0.3994619740733934,-0.027693599119830645,-0.6944929760415888,-0.0388215009101911
4.714174509048462,0.6827442400348394,4.197387777190993,2.576634465193908,0.9247103356281967,-0.07795770597484541,-0.03917121971812135,-0.10999431035843611,-0.4178808682458324,-0.02622197588631472,-0.7026297799354486,-0.40684019469299226
4.733075380325317,0.7013340019645753,4.195939591808133,2.5758481217809144,0.9251442642100114,-0.08128989575030915,-0.0396224550127174,-0.13589118453945756,-0.39351254992620016,-0.024767303286235855,-0.7039172460907865,-0.0643733077668962
4.752976894378662,0.7290797027404167,4.193411535063109,2.574650258547777,0.9222268769631287,-0.09071298853466132,-0.04029547509077549,-0.17298281380785643,-0.3923752848389061,-0.023307791206469808,-0.7146328097760355,-0.5357781842624476
4.773054838180542,0.7474872375419978,4.191518869868468,2.5738397834641145,0.9184073972386904,-0.09855015150426129,-0.04074725643969253,-0.20874486048213065,-0.3913614266602876,-0.021874737226451942,-0.7168982006819804,-0.11326954529724542
4.79297947883606,0.7658843069126514,4.1895268379346104,2.573023027482976,0.9157847793138968,-0.10519375614671558,-0.041114109075193465,-0.2434673643323345,-0.40614596918188867,-0.020462456878267313,-0.7234586808104644,-0.32802400642419904
4.8131935596466064,0.7841490623445362,4.187340768846213,2.5721967456406403,0.9105795580213594,-0.11346104560121524,-0.041509455563482005,-0.2768293955061715,-0.4205139161222124,-0.019076575115516775,-0.7284970933275159,-0.25192062585257524
4.833056449890137,0.7933087009471357,4.186208162054521,2.571782632332851,0.9096657131978545,-0.11669960127969148,-0.04163025448914129,-0.2851481232423936,-0.38290977509045226,-0.017738031441421144,-0.7294441378535814,-0.04735222630327662
4.852923393249512,0.8205495020041481,4.182544437029396,2.5705280571254265,0.9031595266372482,-0.12783222590206736,-0.04208388353190582,-0.3016873912864068,-0.3596427739674362,-0.016400649302588232,-0.7414871669295624,-0.6021514537990491
4.873033761978149,0.838551280517962,4.179917375724152,2.5696831871771777,0.8969650628244721,-0.13479896825822624,-0.04239874036167397,-0.317666069399643,-0.3371617177970117,-0.015089366500908382,-0.7428424289735758,-0.06776310220066861
4.893064737319946,0.8475462398222181,4.178521601239336,2.569259771881445,0.8946499335095618,-0.1389178293153735,-0.04250387160553654,-0.34694261953315997,-0.31266600167015823,-0.013823115838304418,-0.7465037341484071,-0.18306525874156598
4.913386106491089,0.8653679514873189,4.175682301841882,2.5684070129853027,0.8874271914395001,-0.1449332976136726,-0.04276788091930543,-0.3751552912028367,-0.2890220007839399,-0.01258198570404823,-0.7523263149538839,-0.2911290402738409
4.933007717132568,0.8830959545330931,4.172589638667309,2.5675482529584603,0.8813521874565294,-0.15393673108867234,-0.04303571900311588,-0.36753261476938326,-0.2508531740062821,-0.011358324461492805,-0.758413208291651,-0.3043446668883565
4.952934980392456,0.9093882784707464,4.167731540647402,2.5662510217187053,0.8707395221475356,-0.16505079273836507,-0.043395611409099144,-0.36601507916411713,-0.24069996824579848,-0.010134400561560673,-0.7679919487868538,-0.4789370247601399
4.972970724105835,0.9267299660011556,4.1643830397372215,2.565381162915675,0.8634342185194215,-0.16976691461959448,-0.04358627502538143,-0.36451878329172,-0.23098478197741817,-0.00893623643736486,-0.7698586068882589,-0.0933329050702536
4.993068218231201,0.9438892507328215,4.1607630845679,2.5645055221623276,0.8551441224644274,-0.17872110082664763,-0.04381144201909881,-0.3589756636078542,-0.22760141716432522,-0.00775670360603411,-0.7785327573998626,-0.43370752558018477
5.013052940368652,0.9609206990828147,4.157143357938045,2.5636278193348194,0.8480186234584384,-0.18324094231561625,-0.0439549943160878,-0.3536023487319359,-0.22441542347173887,-0.00660277527236417,-0.780857924585256,-0.11625835926967198
5.033074617385864,0.9693230366011164,4.1552157256654745,2.563186453131633,0.8426937365497018,-0.1878365783730533,-0.044053034314466326,-0.3562555665796054,-0.22713893335754637,-0.005487598525364535,-0.7846529043439743,-0.18974898793591155
5.052989959716797,0.9943635001698425,4.14942475947678,2.561860605393,0.829647571002869,-0.19614161930116022,-0.04425868468089084,-0.3642339708819074,-0.22944183892483022,-0.004375337571608511,-0.7945540088464407,-0.4950552251233198
5.073036432266235,1.0108830902467674,4.145455886326475,2.560974629517179,0.8222859964747091,-0.20075329677280218,-0.04433527962264218,-0.3718661017624246,-0.23172215416465777,-0.0032883502947384617,-0.7963758772778782,-0.09109342157187506
5.0929999351501465,1.0190109228246638,4.143406515566261,2.5605297690998126,0.8163134650695637,-0.20398148415638825,-0.04439615250585791,-0.38280930801394514,-0.241660495081423,-0.0022396534489870375,-0.7998817744001379,-0.17529485611298412
5.1130101680755615,1.0352599253257155,4.139277903940706,2.5596414668128045,0.8085519455133866,-0.20891195990635408,-0.04443066172642134,-0.3932612627680515,-0.25134499100484553,-0.0012153092723877004,-0.8055793622961063,-0.2848793947984207
5.132984399795532,1.0592296528329084,4.1328909703216725,2.5583059604888962,0.7943277945537813,-0.21637881330645684,-0.04449781394120786,-0.4040891322447748,-0.24323938846053267,-0.00019742902539022033,-0.8143575095260513,-0.43890736149725385
5.152904272079468,1.0750126463506442,4.128521142956608,2.5574161019076165,0.7854031344904755,-0.22094444523002355,-0.04449031753259766,-0.4157495971126782,-0.23140068970965816,0.0007952600346581171,-0.8171876720024396,-0.14150812381941158
5.173030138015747,1.0906368103864457,4.12405673615501,2.5565265195719524,0.7769763062422722,-0.22545856980281495,-0.0444646880523592,-0.42683856943035947,-0.22010103738675826,0.001763658215262494,-0.8232560746734263,-0.30342013354933695
5.192978858947754,1.098352024187987,4.121791649385569,2.556082091611774,0.7716650820669458,-0.22756613251261326,-0.04443348402589323,-0.4382987235509835,-0.20821340265323068,0.0026930225813193973,-0.8238218278922869,-0.02828766094302715
5.21314001083374,1.1136969306994902,4.117199450661355,2.5551940213279316,0.7627892736327058,-0.2316158383117978,-0.04437052407420657,-0.44918747683417637,-0.1968428164608762,0.0035991114466251734,-0.831009923308506,-0.359404770810956
5.23310923576355,1.1288323852725581,4.112495010147786,2.554306891954752,0.752981156956886,-0.2362452121857695,-0.04430296491531503,-0.45935124545488754,-0.17644337965686685,0.004481091379505823,-0.8351013114352921,-0.20456940633930554
5.25295090675354,1.151201249513218,4.105294673061236,2.5529794925320677,0.7387758869999059,-0.24223144938626986,-0.04416893781810524,-0.4631671828442745,-0.14165514781013994,0.005350901008692775,-0.8443531267949353,-0.4625907679821628
5.273017168045044,1.1658838932832454,4.100423963214541,2.552097240794616,0.7294766927534705,-0.24472816981176915,-0.04405341303275003,-0.4667064159449492,-0.10824522955584308,0.006197772971671162,-0.8460729226758823,-0.08598979404734752
5.293043851852417,1.1803534107269973,4.095427163698985,2.551216931502542,0.7194338178033637,-0.24875993109819944,-0.043938337759743824,-0.469621075425976,-0.07462865967748583,0.007019663733169636,-0.8530536429961177,-0.34903601601177225
5.313064813613892,1.1946479811086472,4.090439208847006,2.5503396223527197,0.710014340125352,-0.2499282641968336,-0.043789912158089764,-0.47228519879865977,-0.0424413941061099,0.00781918667601882,-0.8553068000257773,-0.11265785148297791
5.333054304122925,1.2017008453823865,4.0878551130029095,2.5499014662404225,0.7044705722141806,-0.25233199086047275,-0.043723369251843475,-0.4886153412137821,0.0045109806063766775,0.008584875960994555,-0.8584490334218868,-0.15711166980547642
5.3533289432525635,1.2225973607229383,4.080164209894163,2.548592590821239,0.689120450932834,-0.2554374175359855,-0.04348879265549507,-0.5146075934905217,0.040782785163834975,0.009337514216841631,-0.8670568629629187,-0.43039147705159486
5.373082399368286,1.2362751730431856,4.075065950622067,2.5477247315694855,0.6785779763218602,-0.25427329980262336,-0.04329469545085588,-0.5394492550108883,0.07534612220649863,0.010068638510759146,-0.8673190161163378,-0.013107657670952122
5.392976760864258,1.2497472128286842,4.069807878399533,2.5468603036064383,0.6677752224442602,-0.25753547938197185,-0.04309546875078096,-0.5829257677850153,0.06684623196393998,0.010774253931452454,-0.8750820567382052,-0.3881520310933695
5.41374135017395,1.262983331378093,4.064669960981372,2.546000595078155,0.6556982122026679,-0.2562852872500123,-0.04287310160032742,-0.6244522568534681,0.058138882757064914,0.011459000637933977,-0.8762150992346136,-0.056652124820422145
5.433129787445068,1.2695606666921206,4.062018979034693,2.5455738419434613,0.6507572950417243,-0.25813286169806077,-0.04270838215263415,-0.6512414896691865,0.06225596816121191,0.012108660285233367,-0.8796534878401436,-0.17191943027650147
5.452969312667847,1.2888962078757558,4.054277642709337,2.5443011522915406,0.6341071144999317,-0.2569523343933024,-0.04224701989808983,-0.6673789179089278,0.05576434231357354,0.012735837777936144,-0.8859712354775686,-0.3158873818712493
5.4729883670806885,1.3014438475630115,4.049149299380707,2.54345879989329,0.6206063242682117,-0.25590474925058015,-0.041986194553365,-0.6825381147512398,0.04893923704588382,0.013343453226412042,-0.8885667934889669,-0.12977790056991623
5.49303412437439,1.3138484586593637,4.044073438229997,2.5426281952725183,0.6099381575039433,-0.2538886414066981,-0.041554224290374024,-0.6989560483952276,0.059313860472847604,0.013915776816729255,-0.8917221519725813,-0.1577679241807184
5.513082027435303,1.3259063871788437,4.039008172161926,2.5417999311679442,0.5958033691007832,-0.2526065533192156,-0.041270340267313424,-0.7143538708783872,0.06873773359924736,0.014469549953415956,-0.8961530889438878,-0.2215468485653238
5.5330586433410645,1.331881355153745,4.036523029996918,2.5413917857987802,0.5897812213385512,-0.25101079345769056,-0.041012095275264185,-0.7537369029026886,0.05049707198043807,0.014988303033649673,-0.8958581434048769,0.01474727695054412
5.552972078323364,1.349295984781743,4.02905152395098,2.5401714558166923,0.568756214997724,-0.24856113725952408,-0.04046329243805165,-0.7735530159398095,0.032762031705859215,0.015484205785518389,-0.9049460899930271,-0.45439732940750766
5.573023557662964,1.3605151400298503,4.024085683405577,2.5393653190115897,0.5530974235368066,-0.2480812258970955,-0.04014879215699078,-0.7921191724817388,0.01526943076132893,0.015962983391877378,-0.9076202830527436,-0.13370965298582504
5.592978477478027,1.3660642440101938,4.02166591636689,2.538968236820432,0.5464631643328239,-0.24621520726455845,-0.03988280003804814,-0.8342091285049525,0.008230819466026435,0.016409726984975344,-0.9083451047930993,-0.03624108701778539
5.613258361816406,1.3768239680178602,4.016742783740722,2.5381738917404606,0.5293761599541846,-0.24612187611196934,-0.039550272567230066,-0.8741325359967274,0.0010846472094789366,0.016840347442327323,-0.9165321360050873,-0.4093515605994025
5.633065223693848,1.3873702991569443,4.011968693153244,2.537392028522754,0.5149599531211974,-0.2424870271375312,-0.03906134640360108,-0.9214323955339896,-0.015119559800238623,0.017239657857604906,-0.9171592822797545,-0.03135731373336004
5.652983665466309,1.4025210803472867,4.004795071354714,2.5362326866671365,0.4902570779647484,-0.23996672036154648,-0.03840207607072203,-0.9712025916733004,-0.02903087798028547,0.017613422934628566,-0.9280934660176965,-0.5467091868970986
5.673024654388428,1.4121287931629816,3.999989017216214,2.5354681920123965,0.4703569400235665,-0.24068414117230835,-0.03804619248322776,-1.0183822221485772,-0.04266521890587944,0.017972501636228756,-0.9338037403471229,-0.2855137164713195
5.69296669960022,1.4168972322248867,3.9976848236638203,2.5350942697247025,0.4630748074736175,-0.23820694422229802,-0.037703856033652915,-1.065199145458683,-0.051187199580822504,0.018300211447541143,-0.9330356789472227,0.038403069995007755
5.713080883026123,1.4259426954235257,3.992909884513007,2.534343873808872,0.44132397441840115,-0.2393150238895098,-0.037334688763619284,-1.1094610887550362,-0.05960311354840913,0.01861424974332676,-0.9468401388084402,-0.6902229930608739
5.733087539672852,1.4347835844347503,3.988271290847048,2.533610262050353,0.4247820631406494,-0.23662286035430014,-0.036719988295230946,-1.1407829726662775,-0.06612744716049576,0.018893610820152982,-0.9477436955478926,-0.04517783697262079
5.753037452697754,1.4430490815835868,3.9835251788455923,2.53287965900012,0.4016699402729183,-0.2380097113188264,-0.03633942749552845,-1.1700968553088633,-0.07253892193344676,0.01916038293527412,-0.9632053305521375,-0.7730817502122456
5.772993087768555,1.4471478746143203,3.981229968180449,2.5325237797938507,0.3936204347443105,-0.23633365131652398,-0.03595463598806172,-1.2033334508336382,-0.08377991516225311,0.01939752541112923,-0.9594398490491103,0.1882740751513623
5.793012857437134,1.4585451068129822,3.9741843065177536,2.5314598654409317,0.36099685610735444,-0.23661099824104243,-0.03520482106243838,-1.2239904184478314,-0.09495846944011814,0.019608816327214312,-0.9848462868796597,-1.2703218915274705
5.814085006713867,1.4682525417455834,3.9675886366392175,2.5304847593960846,0.328818879073891,-0.23736758118558107,-0.03458571618533459,-1.2450263590429493,-0.1008662283484502,0.019801032494280776,-0.9991214539200333,-0.7137583520186785
5.833091974258423,1.4745785981839046,3.9628207275728897,2.52979701756097,0.30372240241526177,-0.23944237559501683,-0.03418786203547382,-1.2643354526807355,-0.10658131567432208,0.019982621803201657,-1.0170495859379032,-0.8964066008934957
5.852926969528198,1.4804737829783672,3.9581020905301387,2.5291118263692427,0.2800531444399591,-0.23960687609134287,-0.03393849624546924,-1.2775600537230243,-0.13842765365164653,0.020158183761138534,-1.032522469248386,-0.7736441655241455
5.8730151653289795,1.4858185343643306,3.9532802017884596,2.5284370992626295,0.25438337771542624,-0.2426843321345486,-0.033533663990446556,-1.289145380901622,-0.16912809675796514,0.020323313453304532,-1.057500906011203,-1.2489218381408485
5.892948389053345,1.4883145828294921,3.9509036855153408,2.528098152070562,0.2420703112918321,-0.24300870429966123,-0.033455149617934186,-1.2669771798502396,-0.20923762586050634,0.02048286047896817,-1.0620513596646162,-0.22752268267065556
5.913127660751343,1.4929040868024601,3.9459990638638653,2.5274331557759524,0.2169549966527796,-0.24758223892954329,-0.03304398201648036,-1.2445041135946675,-0.24787134569784516,0.02063221048522498,-1.0934672862005144,-1.5707963267948966
5.933096170425415,1.496936250775427,3.941167984980241,2.5267667160513496,0.19050131224063482,-0.24839472405266336,-0.03288507152400947,-1.2192791914122831,-0.27705559009601477,0.02078203810306311,-1.1248832127364121,-1.5707963267948966
5.953253984451294,1.5019806019609883,3.933725968272255,2.5257752218640728,0.15048750800275185,-0.2530878306121072,-0.032681789859104304,-1.200076548943164,-0.3020051134468594,0.0209427840664413,-1.15629913927231,-1.5707963267948966
5.973047733306885,1.5047516299252586,3.928602193526086,2.5251257848022504,0.1266801568417658,-0.2593697349418098,-0.03226141629855012,-1.1806161285847687,-0.3260325822491593,0.021092793662974098,-1.187715065808208,-1.5707963267948966
5.993063688278198,1.5058048714393923,3.9261046912837574,2.5247841664593946,0.11079369105217314,-0.25976966520493294,-0.0326327549163383,-1.135749866040196,-0.3614151841782239,0.021265800615839308,-1.219130992344106,-1.5707963267948966
6.016865968704224,1.5077965480839886,3.9208347282081277,2.524135775484223,0.08852097798680235,-0.2673397856501216,-0.03220580389646538,-1.091648389113059,-0.3953584711408343,0.021427414300270498,-1.250546918880004,-1.5707963267948966
6.03299880027771,1.5084273165352726,3.918256684494848,2.523791527949622,0.07205435044138289,-0.2681198836668598,-0.03264993527708752,-1.067225594818406,-0.40359779372807175,0.021615671722515467,-1.281962845415902,-1.5707963267948966
6.053066968917847,1.5100805164930133,3.907376728329294,2.5224683308695837,0.02041331186958792,-0.2802500343496996,-0.032653042315854565,-1.0267690578172315,-0.40232277572908415,0.02183644358949278,-1.3133787719518,-1.5707963267948966
6.07291841506958,1.5102861027875327,3.901691350556634,2.521819651356072,0.0002786246255706015,-0.28828332879253044,-0.03221421798707773,-0.9867769146805415,-0.4009985561901831,0.02204376085870326,-1.344794698487698,-1.5707963267948966
6.093091011047363,1.5101643284161421,3.901725287133561,2.5218050014745836,-0.0032627052958983066,-0.28717577917603065,-0.03270195063668007,-0.9476761395990366,-0.4005583545608184,0.022266431045787956,-1.376210625023596,-1.5707963267948966
6.11301326751709,1.5093688004586403,3.892950445694131,2.5208074371533455,-0.03921288615976074,-0.29881367960646477,-0.03238728530552335,-0.9226112252344388,-0.4165783621078521,0.07325468908424189,-1.407626551559494,-1.5707963267948966
6.133097410202026,1.508401687643867,3.8868898275307644,2.5201776382049426,-0.057415102544485036,-0.3072989345481945,-0.03042953042578535,-0.897623425233202,-0.43181787211912287,0.12217883228297484,-1.4390424780953919,-1.5707963267948966
6.153107643127441,1.5067079756113477,3.8806559787186576,2.5194843905494175,-0.08378018665485701,-0.3158799402621686,-0.030995237301105986,-0.8215037894922017,-0.420704646856434,0.117148702266228,-1.4704584046312899,-1.5707963267948966
6.172903537750244,1.5035837304341484,3.8709771179507326,2.518529958520955,-0.11479475532841572,-0.32878680401923865,-0.029614131991527553,-0.751296821281615,-0.4024749396691127,0.11232387706404627,-1.5018743311671878,-1.5707963267948966
6.193042278289795,1.5011421669304814,3.8643220709726105,2.517959824357017,-0.12913353000337263,-0.33665920649802866,-0.02741501060248028,-0.682877012004023,-0.3848686367509339,0.10760599965138219,-1.5332902577030858,-1.5707963267948966
6.213428735733032,1.4995662806107213,3.860892787005703,2.517652761702548,-0.14251844184617504,-0.3416346617927909,-0.027426714675344074,-0.6112503959308807,-0.36341979845281597,0.10316827239180947,-1.5647061842389838,-1.5707963267948966
6.233044147491455,1.4947001871467218,3.850387216544941,2.5168570949622096,-0.16944645550309542,-0.35521397121449333,-0.024900062534918097,-0.5614496038609647,-0.3585637105147075,0.09882755464591522,-1.5961221107748818,-1.5707963267948966
6.253352403640747,1.4912022314000994,3.843211546036695,2.516378574708622,-0.18018689606956628,-0.3623370314115893,-0.022966107832841854,-0.5127824962018269,-0.35374925185740974,0.09458403606696074,-1.6275380373107797,-1.5707963267948966
6.273046016693115,1.487499125227111,3.8358943744382845,2.515937891277692,-0.18996524092835293,-0.3693642191732521,-0.021116059446265763,-0.46523822512035395,-0.34897647586947633,0.09043676438409141,-1.6589539638466777,-1.5707963267948966
6.293028831481934,1.4870865172047942,3.8357375998491876,2.5159206643991925,-0.19938154013194803,-0.3732034612104117,-0.021577766019753707,-0.4144197842276141,-0.3454729256837904,0.0865795343721777,-1.6903698903825757,-1.5707963267948966
6.313225507736206,1.4806418017500236,3.8242896006071576,2.5153146965280144,-0.21971474747491715,-0.38630609437749625,-0.01893226511015645,-0.4285726133530791,-0.3478307451446211,0.08277551163777658,-1.7217858169184737,-1.5707963267948966
6.332910776138306,1.4736845170123969,3.8124681379641574,2.5147897569474345,-0.23715179958514543,-0.39898348657617877,-0.01630404981083182,-0.415058351749616,-0.36311628555821235,0.0790204351606884,-1.7532017434543716,-1.5707963267948966
6.353058815002441,1.4688593800184564,3.804414861961465,2.5144792340514392,-0.2453162067742097,-0.4063926681459094,-0.014760467003344602,-0.40135052512019115,-0.37768276960425584,0.07535225632017538,-1.7846176699902696,-1.5707963267948966
6.37294602394104,1.4637676531836141,3.796148444814083,2.514216430135012,-0.25552053271426006,-0.4153032949306269,-0.01283219873045916,-0.3779927848563878,-0.36918345464928903,0.07178300180942132,-1.8160335965261676,-1.5707963267948966
6.393067836761475,1.4585831914038332,3.7877690969737574,2.5139739090195263,-0.26284843632728766,-0.4226039481935759,-0.011431530120390143,-0.3548301081152449,-0.36092113497798345,0.06829779700961681,-1.834023119394287,-0.899476143405975
6.416792869567871,1.455921144219996,3.7835041559490157,2.513878295180681,-0.2665877279619309,-0.4267797673262773,-0.01040131425189493,-0.33050975919873454,-0.3551654409290271,0.057442447023401774,-1.8263300652738095,0.38465270602388024
6.43293023109436,1.4505248896337861,3.774897906576812,2.5136810513183985,-0.272957956991153,-0.4338262938525066,-0.009358083490353927,-0.306577612510326,-0.34950261321023124,0.04693892431153422,-1.830154547354875,-0.19122410405327805
6.453045129776001,1.4477638382010314,3.7705026392710153,2.5136057438755404,-0.2760829120820981,-0.43848176829874075,-0.008534594560862684,-0.26250888231457925,-0.3514487084647559,0.04459848536519509,-1.8278607724434313,0.114688745572189
6.472898960113525,1.4364610954716397,3.7526151070908256,2.513204026900132,-0.2877191117656658,-0.45417976545901745,-0.009423793870473929,-0.25789004213356215,-0.3504142783232059,0.042448988171180216,-1.8273099873309384,0.027539255624642323
6.493076324462891,1.430655459514077,3.7434615061432877,2.5130239001025947,-0.29282799963694867,-0.46117633211074416,-0.008595878980485454,-0.25294483251747046,-0.34921516881536596,0.04035105025509822,-1.8265261689155379,0.03919092077002695
6.5134148597717285,1.4277275364920632,3.7387973442632245,2.5128582199506493,-0.2946815893018859,-0.46556588735021676,-0.010439435178580857,-0.22823368247850112,-0.33870586870513697,0.03849809158020309,-1.8252175736455816,0.06542976349781515
6.532866954803467,1.4188287037806138,3.7246440957119753,2.512539346565713,-0.3000725140056836,-0.47655181031952315,-0.009863075768934462,-0.21040227849484014,-0.32033696873601764,0.03671544959398452,-1.8219324918442434,0.1642540900669065
6.55308985710144,1.4127863469173492,3.7150501928054718,2.5123493114166444,-0.3041047257720433,-0.482778841801086,-0.009146240197409504,-0.19286827607058876,-0.3024453314454839,0.03497512458051381,-1.821779556164571,0.007646783983616956
6.572930097579956,1.4067679103085897,3.7052657586577937,2.5121689793092083,-0.3051694314737271,-0.4904567931991764,-0.008621062744894423,-0.1676513718239534,-0.2830125483269226,0.03330942689741125,-1.8169479219626745,0.2415817100948292
6.59305739402771,1.4006326423834679,3.6954012894524926,2.5120031108978167,-0.3082753118500234,-0.4959271056408045,-0.007971197266611727,-0.1430365172644604,-0.26410595314833574,0.03168375836691689,-1.8170984907813086,-0.007528440931703351
6.613084554672241,1.3976071666120258,3.6903636580425125,2.511899039572887,-0.30768009905719507,-0.5002251817617049,-0.008433001932099659,-0.11992813648105385,-0.2379927150556072,0.030186315933967704,-1.8134343010800116,0.18320948506485024
6.6332197189331055,1.3883591653309413,3.675158858147137,2.511627326967717,-0.31003290984637005,-0.5097861333534386,-0.008452949025204687,-0.09381171090337892,-0.2144696218686343,0.028776828945277062,-1.8094814792733689,0.19764109033213462
6.653056621551514,1.3821414510405519,3.6649217740526505,2.5114639310794673,-0.31165378421512696,-0.5138462428796781,-0.00789122543204629,-0.06839109839735692,-0.19165953042506817,0.02740113350694027,-1.8087327399442281,0.03743696645703842
6.672945261001587,1.3790580572251991,3.6596831658852436,2.5113714412433708,-0.31107088154737633,-0.5181827215808299,-0.0079951464426134,-0.04267803327158755,-0.17331725391994596,0.026116033004537433,-1.8055398106853926,0.15964646294177598
6.692988872528076,1.372829781967312,3.649286043038489,2.511216677398336,-0.3116733454382163,-0.5214702716152766,-0.007485418504049226,-0.017688264130951595,-0.15552971134812893,0.024861894761743483,-1.804008527190883,0.07656417472547972
6.713078022003174,1.3666152012308972,3.6386698453610267,2.5110974077287636,-0.311266949888907,-0.5283177820826236,-0.006262217805234116,0.0074312212207789064,-0.14142680470550612,0.02360838948191593,-1.7992145137842992,0.2397006703291904
6.733004331588745,1.3603929862787276,3.6280761231321774,2.5109768030362636,-0.3108732654187864,-0.5310088570040477,-0.005802326429699203,0.03181532687770476,-0.1277515892154829,0.022385888648705686,-1.79788786084938,0.06633264674595907
6.753117799758911,1.354200018601949,3.617298952965711,2.5109267086911675,-0.3096082000679755,-0.5366927751876095,-0.0037924700447018525,0.054001406769976196,-0.11680492603163369,0.021110847349070993,-1.7929220356897293,0.24829125798253582
6.772937059402466,1.3449471008051908,3.601079251505683,2.510868511335396,-0.3074797571640627,-0.5419739259007643,-0.0018545775805015614,0.07591756247814044,-0.10742344119797399,0.019781693560092836,-1.7881585465357626,0.2381744576983369
6.793106317520142,1.338814117707425,3.5902188995021285,2.5108352892660353,-0.3057476651386602,-0.5440309501315062,-0.0014719431217978982,0.09718392067579093,-0.0983260957006542,0.018487557468594894,-1.7860507604481901,0.10538930437862248
6.813128471374512,1.3357814067925888,3.584728686569627,2.510865285569761,-0.3040250969272238,-0.5461717767062926,-5.338030170091538e-05,0.11676646899406401,-0.08787020432833817,0.017181444550251272,-1.7836845298724522,0.11831152878689633
6.833011627197266,1.3297255341088787,3.573788357693646,2.510867568951721,-0.30149886286976063,-0.5478273470506104,0.0002774828296144057,0.13575914532805627,-0.07774099562623876,0.01591073775340667,-1.7800629935968906,0.1810768137780805
6.853132724761963,1.3267250375722102,3.568269444417671,2.510914850596,-0.2997564336880491,-0.549535367516783,0.0016750343843045538,0.15267983149023878,-0.06719080239218915,0.014628160674492647,-1.7785445782071414,0.07592076948745863
6.872937917709351,1.3148616144756273,3.546186966489671,2.511060789964137,-0.2933236803108504,-0.5532447577569042,0.003919031678795864,0.1684287132857292,-0.05576246791007935,0.013266027334409139,-1.7686131593857621,0.4965709410689634
6.893048286437988,1.3090298518746106,3.5351116619247662,2.5111417349421785,-0.2898017252824062,-0.5542488560799008,0.004171055341864509,0.18368515328257595,-0.044709604027196134,0.011942785142532986,-1.7677590184657048,0.04270704600286557
6.913946151733398,1.3061651565237122,3.5295531035735572,2.511223773160024,-0.28715064801734597,-0.5549718980851797,0.005405109154468812,0.19544208971416585,-0.032939705213825624,0.010621542888593405,-1.7647069479135085,0.1526035276098181
6.933124542236328,1.3004619970271323,3.518447842385907,2.5113339135099686,-0.2831273599603468,-0.5555163153257441,0.005604650905733221,0.20682466177418704,-0.021568026520163416,0.009339055436349088,-1.7606260776952687,0.2040435109119887
6.953164339065552,1.2948745729083933,3.5073093154988952,2.511503771771667,-0.27801709093059734,-0.5564073344451687,0.007162052582434179,0.21863716623722088,-0.006949816819269008,0.008033612465740785,-1.755920997579111,0.23525400580788336
6.9729437828063965,1.2866621833099896,3.490601326055356,2.511754205915598,-0.27051636442475857,-0.5568740165916961,0.008297026278254545,0.22800386774367604,0.004660539348912125,0.006716535970614213,-1.748718384416874,0.36013065811184575
6.993170261383057,1.2812980654784416,3.4794655313158915,2.5119214039654247,-0.2658652456810286,-0.5566681233580145,0.008418523049171619,0.23705584010902978,0.015860813691536104,0.00543983180541767,-1.7461357511007836,0.12913166580452717
7.013457775115967,1.2786900340291503,3.4738942764805762,2.5120337169317217,-0.2622965193600749,-0.5565594077528458,0.009250145206371019,0.2457786408010838,0.02607033547681506,0.004188829936253975,-1.7433285131625413,0.1403618969121112
7.032979488372803,1.2734938245965686,3.4627689641866226,2.512219476175368,-0.25729643234057686,-0.5559390440105073,0.009321740520603788,0.2541761726425588,0.035903695084195345,0.0029772311810158693,-1.738691036382101,0.23187383902201208
7.053045034408569,1.2709706735702408,3.457203923958291,2.512338170210225,-0.2536204091985578,-0.5556875222258946,0.010057173481046601,0.2613529058196934,0.046014168768235844,0.0017939015897178126,-1.7366765244383333,0.10072559718838914
7.0729453563690186,1.261090282082997,3.435003518986996,2.5127755776365035,-0.24167070667488136,-0.5539866231139643,0.010944393959524339,0.2707465784606556,0.05233735590570168,0.0006022718097729226,-1.7242185054198802,0.6229009509226557
7.093044996261597,1.2563116253339262,3.423934661971982,2.5129945084897116,-0.23616486573802528,-0.5528789043115439,0.010944849828032314,0.27977739844647304,0.05838963028274014,-0.0005501957325963766,-1.723212213172999,0.050314612344060095
7.113169431686401,1.2540071824642758,3.418417718698677,2.513120273901864,-0.23204863930925443,-0.5519841427598259,0.01138444924057011,0.2894907080745664,0.062340071507267766,-0.0016584287148253484,-1.7193992323166487,0.1906490428175145
7.133039951324463,1.2472103608207783,3.4019003515599215,2.5134752597922327,-0.22232560880037863,-0.5496562046459241,0.011728533366151145,0.2966998465884058,0.0664226122542504,-0.0027419411097497595,-1.710466607483625,0.4466312416511853
7.1530702114105225,1.242823654559329,3.3909207744842464,2.513709211703947,-0.21632196291185782,-0.5482885384177443,0.0116631703459216,0.30361623292876927,0.07031199965605865,-0.003788186240767925,-1.7074268849700114,0.15198612568068093
7.173006296157837,1.240711155785249,3.3854651855726625,2.513837605101504,-0.21221202727815966,-0.5468359182286048,0.011952372144724058,0.31001258090858813,0.0768793121306192,-0.0047863762063522835,-1.7045278058815252,0.14495395442430947
7.193094253540039,1.2365293304516756,3.3745442664206053,2.5140756305009986,-0.20595009861381097,-0.5452350691442343,0.011846958832133402,0.31613487325759737,0.08315771627824942,-0.005749075034421046,-1.6987526613348707,0.28875722733272546
7.213378667831421,1.2325204578072675,3.3636926641987115,2.514327663277331,-0.19839070166597325,-0.5425957904718354,0.012123110597031205,0.32387563917217616,0.0916536202870261,-0.006671455633311615,-1.6931782643232354,0.2787198505817656
7.233062267303467,1.228617917475585,3.352859627065193,2.5145687314075067,-0.19183869218211594,-0.5406808306875486,0.01198074105628113,0.33126750424830625,0.09978134863473921,-0.007559871716456687,-1.6881475000445048,0.25153821393653075
7.2530786991119385,1.224890096199476,3.3420944988978443,2.5148197931749623,-0.184198902049506,-0.5379644448657627,0.012141358160057755,0.3268706158783301,0.10375656181880244,-0.008404698468793666,-1.681994069252561,0.3076715395971874
7.272961854934692,1.219542119776251,3.3260177314478816,2.5151872538999154,-0.17347311047999217,-0.5343360419832249,0.012079249081075622,0.32840356647954183,0.11186368068773023,-0.009213270512845236,-1.672590915583692,0.47015768344345066
7.29307222366333,1.2161384332614926,3.3153539057320547,2.515426943903878,-0.1668909112534183,-0.5320207097485532,0.011887161312837536,0.32979252223544125,0.11960970487069932,-0.009990277675525084,-1.6688021621376201,0.18943767230359398
7.31318736076355,1.2145237875131907,3.3100563029520145,2.5155500874298835,-0.16252220227676556,-0.5303820179860514,0.0119116552858335,0.3278455557113999,0.11520113639354781,-0.010717177336915972,-1.6655217855178464,0.16401883098868808
7.333281993865967,1.2113387822226191,3.29947141395655,2.515786130126608,-0.15598485369936033,-0.5281212413009773,0.011690290314445885,0.32588748710564247,0.11089319206569032,-0.011414405114605666,-1.6592193271035942,0.31512292071260717
7.353066444396973,1.2083471875080454,3.288961665142222,2.516023631075471,-0.14790000554588292,-0.5250520386422106,0.0116024760596003,0.322936710229587,0.11340412475694982,-0.012062627851574591,-1.6525283449218096,0.33454910908923274
7.372933864593506,1.2054789384475966,3.2785011151739223,2.516254881252783,-0.14068455059074592,-0.5223087084929199,0.011409728969761637,0.3121788751742604,0.09804338289032916,-0.012672253162062526,-1.646677951098149,0.2925196911830241
7.392997741699219,1.2027269836504484,3.2680735539533328,2.5164805020869903,-0.13454561520615577,-0.5204967312879313,0.01115041201806991,0.30177298306478245,0.08324794420595749,-0.013254988703334013,-1.641317256366769,0.26803473656900056
7.413152456283569,1.2001775407142847,3.257753044544059,2.516704150746462,-0.12649377455737668,-0.5170183102990963,0.010960133103513597,0.2941802804316824,0.07016436280132184,-0.013788373250797676,-1.633954836727796,0.36812098194864973
7.433079481124878,1.1977060077095965,3.247425863318723,2.516920561428073,-0.12068399561411926,-0.5157418039617787,0.010679240504534827,0.2868393193420481,0.05756673976152106,-0.014296744506982989,-1.6291500819769125,0.24023773754417999
7.453198432922363,1.1965771215272587,3.2423422834071554,2.517027697799286,-0.11606956762571093,-0.5132736058829,0.010559740314148969,0.2783778289647492,0.03971024340470169,-0.014760842848987312,-1.6255961012084228,0.17769903842448365
7.472955942153931,1.1922595220227772,3.2219793025143373,2.5174389931277834,-0.10267550782839452,-0.5085042244948186,0.009980247609136315,0.24580874025329497,0.014133319376983535,-0.015177241471580054,-1.6100037965258647,0.7796152341279061
7.493929862976074,1.1902530650505214,3.211810389094206,2.517635535974048,-0.09807457945468899,-0.508469077258889,0.009672722373425651,0.2144914703486002,-0.010454804582215036,-0.015571639476316972,-1.6088713070350633,0.056624474540067915
7.513156175613403,1.1893563994914347,3.206814257085946,2.517729158951234,-0.0938800733353995,-0.5061502361348765,0.00943747626645695,0.20539973605427278,-0.025825539175410105,-0.015920732073942935,-1.6041437480607814,0.2363779487140949
7.53296160697937,1.1875192912157448,3.1966850945195384,2.5179147020707218,-0.08985977172842322,-0.5068151280405915,0.009115739475693574,0.19669440327848603,-0.040557934114195886,-0.016249598584728523,-1.5996934170512769,0.2225165504752269
7.553101301193237,1.1867352040085655,3.1917253967304786,2.5180019874340434,-0.08514244581695073,-0.504208650452868,0.008864784276064302,0.17100977887163185,-0.05495939350382261,-0.01653586630046174,-1.5954029051392422,0.21452559560173334
7.572908401489258,1.1836241694328955,3.1716776293320894,2.5183398408516826,-0.07469304222342678,-0.5025282450456662,0.00811445615078339,0.13752133567977218,-0.07165727592448926,-0.016770572350204165,-1.5821511996867526,0.662585272624483
7.593063592910767,1.1821556483847413,3.161611657801928,2.518498761067384,-0.07226615895563365,-0.5041220375850638,0.007776839904372052,0.10539214974366931,-0.08759632398959748,-0.01698823078316857,-1.5823002988493164,-0.007454958128194633
7.6130900382995605,1.1815306730695294,3.1566492487742304,2.5185728041479436,-0.06872112990735588,-0.5026429356092555,0.007520455826980872,0.08795637772979663,-0.08569544374683288,-0.017169254213679756,-1.5775064197570408,0.2396939546137844
7.632944345474243,1.1796241425147147,3.1416039286365547,2.5187885151556584,-0.06283465851359468,-0.5031851116190416,0.006943974641657678,0.08598639045936297,-0.08249461003443383,-0.017311294264207324,-1.5701082084145481,0.36991056712463166
7.653112411499023,1.1783845256275234,3.131523939981206,2.5189239236420793,-0.061132909117167976,-0.5048031439466777,0.006596448555556965,0.08422266468781621,-0.079311624730386,-0.01743893120274793,-1.5692516321779282,0.04282881183099718
7.672958135604858,1.1773004731467283,3.121466756392251,2.5190507333106718,-0.056420569787679925,-0.5049825945137806,0.006211345246656654,0.10237285367266603,-0.05880322901973972,-0.01752898413039965,-1.5625305640124783,0.3360534082724964
7.693021297454834,1.1761937159292863,3.111356677795329,2.519171449060944,-0.05419667535150584,-0.5059591197969996,0.005859972561494759,0.11991594232088006,-0.03895949904431092,-0.0176061530422444,-1.5608544969842573,0.08380335141104922
7.713050365447998,1.175679412241359,3.1062876960740486,2.519229184510133,-0.05235381607424286,-0.506437016135209,0.005685815128647086,0.1361504901016496,-0.014858062838313035,-0.017659974201517346,-1.5585053861591964,0.11745554125304203
7.733306646347046,1.1741279233065496,3.091025899278677,2.519392738512271,-0.04939023831288615,-0.5085406700516214,0.005183058007826435,0.1553132264063461,0.006659483809198394,-0.01768443811955337,-1.5539458902670846,0.2279747946055899
7.753129720687866,1.173172425079752,3.080857814027976,2.5194928617010826,-0.04609794674839596,-0.5081986760101443,0.004829215728435543,0.17380462962787538,0.02741332390051756,-0.017697984397780718,-1.5503173538313262,0.18142682178792224
7.772955894470215,1.1721739460832221,3.070569535311707,2.519587746893719,-0.045398334617614104,-0.5107605140165817,0.004522260257627615,0.18578042497010203,0.052728364297607834,-0.01768493303045081,-1.5495007187402838,0.040831754552117516
7.7931084632873535,1.171303912293655,3.0603665118194376,2.5196746564713193,-0.04156656093395,-0.5094605505664739,0.004168773531695115,0.1973255182156825,0.07711392976681455,-0.01766212686615781,-1.5440748243156608,0.2712947212311523
7.813069820404053,1.1708110497392108,3.0551731712759604,2.5197169270817237,-0.04199127055547244,-0.5114817268160385,0.00403477468640885,0.205997592952438,0.09351908017119787,-0.01762426243661483,-1.5457559205031433,-0.08405480937412335
7.832915306091309,1.1695561293353893,3.039750909710979,2.519831282092249,-0.038227047137278765,-0.5119342328330421,0.0035422709290385363,0.21482164397444115,0.11100685529087768,-0.01756090051240508,-1.539102313385154,0.33268035589946177
7.853096008300781,1.1688351280573506,3.0295355567006665,2.519898619962903,-0.033844528216991104,-0.5095451434065565,0.0031917544816939167,0.2233874229073447,0.12778443560403993,-0.017489399245392077,-1.534775098511533,0.2163607436810544
7.872951507568359,1.1680851017315308,3.0192085806048388,2.5199605474873508,-0.03222602168317951,-0.5108539163672743,0.0028796198180357753,0.23313330151884262,0.145671824346823,-0.017395321610312122,-1.5331052887160954,0.08349048977187579
7.892992973327637,1.1674878415257923,3.0090217917057736,2.520014667447814,-0.027468588172477635,-0.507767839967568,0.0025327135337784093,0.2425565756868314,0.16281204779158312,-0.01729413210148698,-1.5267143295792809,0.3195479568407267
7.913199424743652,1.1671505153640964,3.0038545504718277,2.5200399695848765,-0.027111812777802894,-0.5087389699802405,0.002386444731197449,0.2493718891324424,0.18244038834991994,-0.017181605885625898,-1.5277381430853603,-0.05119067530396926
7.9329142570495605,1.1663721155745617,2.9885720604570687,2.520104780079753,-0.02179238123389325,-0.5060199150997619,0.0019005547605350937,0.25261832868960615,0.20099199086188244,-0.017046313752802373,-1.519338022234633,0.4200060425363583
7.953116178512573,1.1659870016223621,2.978493057602032,2.520139391216289,-0.016708620027418773,-0.5018211755252632,0.0015610287890413157,0.2557365402009385,0.2187506170724827,-0.016905346798909444,-1.5143060440718292,0.2515989081401937
7.972933292388916,1.1656098227475,2.9683640722566453,2.520169060062149,-0.01387220039024285,-0.5006814445384298,0.001269384589895274,0.25690974572909586,0.23614356447293014,-0.016746627855168363,-1.5112078716485184,0.15490862116553927
7.993129253387451,1.1653838366527822,2.9583987924071087,2.520191109251022,-0.008722648202444231,-0.49579117285432595,0.0009360794064670489,0.2580380158609804,0.2527539948354421,-0.016583096829835078,-1.5043318192970299,0.3438026175744291
8.013152837753296,1.165267326887117,2.953374745693134,2.5202011487977924,-0.0073337684717153405,-0.4953119344572052,0.0008158897139216434,0.255263957618372,0.2724882369764116,-0.016413547006854975,-1.5039948937357615,0.016846278063420428
8.033102989196777,1.165171522805232,2.943524275926246,2.5202141954032156,-0.0022556580665986595,-0.4896722123950506,0.0004893504324475163,0.2525584392855504,0.2913373720530556,-0.016239667360964632,-1.4962363496801028,0.3879272027829339
8.053050994873047,1.1651420528046486,2.9336678439885295,2.520222971406209,0.001963800630594108,-0.4867517188369973,0.00022036830267007908,0.24853745577751093,0.30291727999771473,-0.016051091682202628,-1.491604795414879,0.23157771326118848
8.072929859161377,1.1652272181385002,2.9239544743083687,2.520224809466758,0.006746831909560161,-0.4818828380975071,-7.728230134843336e-05,0.23952163362892082,0.31507584370111297,-0.015853599908141325,-1.4851256085448585,0.3239593435010235
8.093169689178467,1.165409472235619,2.91438061252875,2.5202201064278325,0.0114494693655934,-0.4754648581806022,-0.0003923525916325505,0.23078904873032735,0.3266204793702463,-0.015652901385262985,-1.4790042259921434,0.3060691276357552
8.113118410110474,1.1656994525849067,2.904854673298331,2.5202112130934093,0.016474074021816276,-0.47088791390121437,-0.000651902605863257,0.22636023839444538,0.32964717318626674,-0.015439430420690497,-1.4721195709856576,0.34423275032429146
8.132970571517944,1.1663212214608358,2.89084699482159,2.5201857922423634,0.023994505343101467,-0.461745713372776,-0.0010830586072574637,0.22472493727897924,0.3340055661504626,-0.015209039292622028,-1.4606561761904273,0.5731697397615143
8.153088569641113,1.1668459429507967,2.881679158723986,2.520161104716372,0.02847188766800582,-0.4550242673084594,-0.0013849197444838312,0.22299816473369535,0.33809433655570587,-0.01497676614171027,-1.4550941355669296,0.2781020311748872
8.172929048538208,1.1674995387516498,2.8726429320036373,2.5201301187794307,0.03390064794214101,-0.44822237186045927,-0.0016956355243431388,0.22168988471619078,0.3436397898781887,-0.01473001863424572,-1.4461922780058152,0.4450928780557195
8.193058252334595,1.1682217974659939,2.8637475655443114,2.5200932765730055,0.03832052968556435,-0.44129689937279354,-0.0019877587886460695,0.22028176592160878,0.34885225921147406,-0.014482120676482713,-1.439355640378977,0.3418318813419141
8.214584350585938,1.1686379804564333,2.859367217190952,2.5200721891264863,0.041076012792567215,-0.43735996857034,-0.002143807609572224,0.21212718434487443,0.34765620697767713,-0.014230997366771485,-1.435269300699916,0.20431698395304565
8.23314118385315,1.1695013915166128,2.850689463679888,2.520026483556245,0.04523851083454518,-0.4304197451615691,-0.002425909702245038,0.20415243586555684,0.34634743726902806,-0.013979084519767159,-1.4272436964534911,0.4012802123212422
8.253088235855103,1.170486604645996,2.842188628433469,2.519974105027112,0.05026618579537614,-0.42248244065265284,-0.0027353903034644843,0.19411626697826756,0.3455202140771836,-0.013713684839905349,-1.4178561084600352,0.46937939967279796
8.272950410842896,1.1721191568951033,2.8297097986511304,2.5198838826983803,0.05706255615507778,-0.41097541644103563,-0.0032017149323330706,0.1811770706560608,0.34226718415135976,-0.013429786557552816,-1.4037676619945785,0.7044223232728353
8.293136596679688,1.1732958004585174,2.8215585236000993,2.519817181338323,0.060559976781246694,-0.40416315119113383,-0.0034674768043709532,0.16862997585207803,0.33894843488600834,-0.013146506428661445,-1.397351428226917,0.3208116883830714
8.313207149505615,1.1739534641379048,2.8175843020806,2.519779175886823,0.06340338187467982,-0.3992778532340194,-0.003676670240255377,0.15682575321503103,0.3435450548702359,-0.01285883136090191,-1.3911718844194083,0.3089771903754368
8.333115816116333,1.1752521286213264,2.8096677422082803,2.519703089844441,0.06642495993566999,-0.3923640273601737,-0.0039309784032564845,0.14539372094037983,0.3477771146673979,-0.012572153444075805,-1.383551539585107,0.3810172417150648
8.353088617324829,1.176554372460806,2.8027386336136577,2.5196263942881876,0.07108265439134197,-0.38408247218896613,-0.004251798242923859,0.13382070771275037,0.3562609972572624,-0.012273216841345835,-1.371750747971363,0.5900395806871961
8.372925281524658,1.1786508873117332,2.7921621799390315,2.519500446416657,0.07632077551454645,-0.37298305964426837,-0.004654441462494987,0.12410209214774393,0.3591372409159264,-0.011960414857955348,-1.3571175155833002,0.7316616194031456
8.3930823802948,1.1802014912361394,2.7847745213884303,2.5194049862471877,0.07870828000653815,-0.3657743098376,-0.004890540197791855,0.11470095290774154,0.36168297912997477,-0.011649829053810443,-1.3499192452328277,0.35991351752362455
8.4131019115448,1.1810440265518822,2.781169948794771,2.519352849648589,0.08113476994275962,-0.3610687224162688,-0.005082805226203294,0.10057790648347807,0.37305314796241007,-0.011337757463630246,-1.3426008960502145,0.3659174591306602
8.43339490890503,1.1835742749989226,2.770531688573726,2.5191930174453545,0.08548715444264092,-0.3490374192565783,-0.005481647513094405,0.08678890925952232,0.3875060194101022,-0.01101166631725282,-1.3260169725354594,0.8291961757377564
8.453141450881958,1.1853004835194885,2.7636293624636035,2.519081203746964,0.08708952549052022,-0.3411498409071473,-0.005698645640673526,0.0735371562443518,0.40111144866841514,-0.010688660749071236,-1.318171291360784,0.3922840587337717
8.472933769226074,1.187129248376139,2.7569078812353593,2.5189617425227038,0.09031794859233988,-0.33255152365380697,-0.005991033802465466,0.06667737820640726,0.413888778705009,-0.010356857369252608,-1.3043054766000903,0.6932907380346798
8.494147062301636,1.1889485017961041,2.7503404365659865,2.5188398724164323,0.09158561129764559,-0.3241532652538714,-0.006194882742221531,0.060142665342052565,0.425792374739874,-0.010028632497437977,-1.2950171433202722,0.46441666399090753
8.5133638381958,1.1899127243083887,2.747119408310636,2.5187761571568656,0.0935565222610762,-0.31984404894179974,-0.006327339159679477,0.0728426867810791,0.43515848513567634,-0.009704075031127211,-1.286183940723089,0.44166012985915604
8.533121109008789,1.1927781491005112,2.737708336468444,2.518581397962074,0.09656279870264359,-0.3069676562704888,-0.0066304406319455025,0.09182568609057248,0.4529888182832278,-0.009371084733134739,-1.2660982442685103,1.0042848227289403
8.553132057189941,1.1947290046116912,2.731660706079754,2.518446936927235,0.0985839563100657,-0.2977401879469609,-0.006814566518266991,0.11018695490664987,0.46954749918030225,-0.009042184383751373,-1.2521341703402165,0.6982036964146898
8.57304072380066,1.1966956940578721,2.725777607807329,2.518305978098618,0.10023077232957397,-0.2887550977843262,-0.0070720564538386205,0.14650713823870934,0.49302917648234923,-0.008707024225051868,-1.2393950857753704,0.6369542282423035
8.593185424804688,1.1987319658486213,2.7201025959524023,2.5181628176845314,0.1035130522325028,-0.2786732171535052,-0.0072428826899501465,0.1815010296310741,0.5148907128707972,-0.008376344465737316,-1.220525756226611,0.9434664774379709
8.613168001174927,1.1997037349761699,2.7173115808624106,2.5180885563582196,0.10339323256532382,-0.274237487294227,-0.007360033383836845,0.20562740345964045,0.5336858611173848,-0.008050772415016309,-1.2181915714782838,0.11670923741635697
8.632965564727783,1.2018142888133776,2.711934748614419,2.5179397670163275,0.10773959551647448,-0.2633879233305515,-0.007517830524346442,0.22886087120976292,0.5510304480164757,-0.007729687770179405,-1.1938122238657596,1.2189673806262125
8.653026580810547,1.2027767559353095,2.709273353476855,2.517862838004492,0.10665916220250152,-0.25933816513194247,-0.007626352303567023,0.2582043788405197,0.5635644281814424,-0.007413808027348717,-1.1957534302362367,-0.0970603185238561
8.672981977462769,1.2070272974046092,2.699257465273513,2.517546515883416,0.11167175673746797,-0.23894340701681052,-0.008052198192544017,0.27852567963472064,0.5755056086287745,-0.007077418811303871,-1.1643375037003387,1.5707963267948966
8.693087339401245,1.2093177520775815,2.694594434174459,2.517384078595509,0.11743876224841274,-0.22732390177037776,-0.008190427034920117,0.29804133354510076,0.5862462245963806,-0.006746349320987868,-1.1329215771644408,1.5707963267948966
8.71308946609497,1.2103905641984352,2.6923137231704994,2.5172924620233585,0.11745357579596183,-0.22232175302943558,-0.008528466505212115,0.3365428940470677,0.6050259935413592,-0.006406571693133412,-1.1293725394754088,0.177451884451596
8.732936143875122,1.213938033170446,2.685879022340383,2.5170123319891746,0.12418055210535033,-0.2050993806713503,-0.009310805021325747,0.3715274513467629,0.6207141530252372,-0.006026162472345652,-1.0979566129395106,1.5707963267948966
8.753058910369873,1.2164982119978267,2.6819021477859897,2.5168249356546055,0.1319492859876215,-0.19254081412246019,-0.00942758452947395,0.4051143248666904,0.6348927080653539,-0.005652989698238987,-1.0665406864036129,1.5707963267948966
8.77294659614563,1.219019732028038,2.6781279728353344,2.5166180917679353,0.1353461203768843,-0.18108655337747642,-0.009634915498130536,0.44217618352095517,0.6375974128249472,0.035862636666042357,-1.0351247598677151,1.5707963267948966
8.7931489944458,1.2218174789299525,2.674633894959246,2.516435250212313,0.1445466829593744,-0.16831531896724652,-0.008516410860779915,0.47761045610501746,0.639372228425144,0.07571172922332563,-1.0037088333318174,1.5707963267948966
8.813189029693604,1.2231467031400967,2.672958173168338,2.516318139661481,0.14562145307611568,-0.16239787592823965,-0.008841431704101838,0.5102983433133098,0.6614917692954078,0.07180472188072216,-0.9948040654305927,0.44523839506123153
8.833056449890137,1.2261632912594296,2.6698439073284272,2.5161554162629445,0.15614100757830013,-0.14896038665875594,-0.0074436147354002705,0.5413932951423612,0.681988563180275,0.06799272991534072,-0.963388138894695,1.5707963267948966
8.853107929229736,1.227596883338384,2.6683714232609113,2.5160300547126564,0.1575847576073978,-0.1424983690566645,-0.008243273639836896,0.5893209922512795,0.6966772441694189,0.06445941016040813,-0.9437822740310953,0.980293243179986
8.872914552688599,1.234119595847981,2.6631756997564544,2.515714030042859,0.17503766366094473,-0.1158120585684936,-0.006575107105005793,0.5972908619633482,0.7104205656659615,0.06101492352437545,-0.9123663474951975,1.5707963267948966
8.893057584762573,1.237740309984046,2.661002387393276,2.515594505506112,0.18705841051729188,-0.10147812567988439,-0.005388545057476496,0.604689151756922,0.722736525727955,0.05765536262627023,-0.8809504209592998,1.5707963267948966
8.913110733032227,1.2395307374294056,2.659998839716604,2.515530026331823,0.19000773428543333,-0.09478015255740758,-0.0051960264407587865,0.5974950381728389,0.7430088493356353,0.05448423232410308,-0.849534494423402,1.5707963267948966
8.932995319366455,1.2434499071112002,2.6582531100533453,2.5154367951997236,0.20188496071567935,-0.07973055389037934,-0.004137393653412972,0.5902131134299248,0.7616871780575717,0.05139215340574204,-0.8181185678875043,1.5707963267948966
8.953176021575928,1.2454422601245871,2.6574600309409893,2.5154004122046976,0.2061416437939838,-0.07296986330806368,-0.0035608102278021064,0.5684493009466541,0.7738988299364642,0.0484482797939443,-0.7882254552579466,1.4946556314778814
8.97295618057251,1.2541832335184675,2.6550946054299414,2.5153145928287364,0.2299282411510428,-0.04378762826180724,-0.0012007974505268805,0.5445331266554202,0.7496543807053903,0.04551148417587594,-0.7568095287220489,1.5707963267948966
8.993004322052002,1.2588891317495914,2.6543671815822463,2.5152994871693486,0.2405832726115957,-0.02903462957751457,-0.0003193062298414928,0.5210402595267816,0.7256924319346193,0.04265014848132551,-0.7253936021861511,1.5707963267948966
9.013057470321655,1.2614034646668006,2.6541130804513076,2.5153094394243136,0.24799242165578256,-0.02184668011781148,0.0003919651609480661,0.4930231409883552,0.7050791073278775,0.03991508954699911,-0.7194831831069144,0.2955209539618364
9.032979011535645,1.2664600792249803,2.653815795382309,2.515325082987863,0.2575775950288281,-0.007950075543071186,0.0011635126261161479,0.4655913149684647,0.6846044821260555,0.03725150654929921,-0.6983655020200614,1.0558840543426484
9.05315899848938,1.2691958231074576,2.6538414230967318,2.5153473157297306,0.2658698574703454,0.0009267136865800359,0.0017473754496953695,0.4282624648194437,0.6767647620502225,0.034710987307448586,-0.6970655945059399,0.06499537570607838
9.072913408279419,1.2804529728061087,2.6545877532655866,2.5154217743534137,0.2897505818613253,0.032295680442699606,0.0024362971639216996,0.3979593292974479,0.6914682465338499,0.03225698513058372,-0.6656496679700421,1.5707963267948966
9.093031644821167,1.2863255947291528,2.6553728765705955,2.515476791393138,0.29741317152124735,0.04626139090619755,0.003057446445292053,0.3684275182398812,0.7048907983990949,0.029868864383530168,-0.6606718451036566,0.2488911433192742
9.11307978630066,1.2894963945023155,2.6559504704161485,2.515469347985903,0.3060171661412987,0.055441519817313246,0.0022679439635820233,0.3486512254969758,0.6960440707625118,0.02767634586678666,-0.6553057093545607,0.2683067874547973
9.133016347885132,1.2956851699874816,2.657197902158613,2.5155200989501654,0.312795815478875,0.06927098910215417,0.0028000426847235547,0.32928109520061366,0.6868445750658638,0.02554340177170511,-0.6463802058840904,0.44627517352351376
9.153077363967896,1.3023045066323706,2.6587891667359984,2.5155706215880347,0.32663876335036207,0.08461737308177476,0.003099343083341944,0.3149998139347554,0.6741039028672119,0.023520574378527306,-0.642060713653374,0.21597461153581854
9.172987937927246,1.30889934150373,2.6606154760554923,2.515637180514141,0.33279790043270846,0.09797045552738463,0.0035499934688939007,0.3009527763622736,0.6611729681924096,0.021553746710983923,-0.635977835718402,0.30414389674859876
9.19304895401001,1.31241192937851,2.6616854064680497,2.515682882414287,0.34044075241550475,0.10625673038141585,0.004027001284749153,0.28427444511107824,0.6625896894023227,0.019676678110365175,-0.6362275361015768,-0.012485019158736677
9.21308708190918,1.3264804914905421,2.6665844269691346,2.5158824401413478,0.3571005244895291,0.1358705784740375,0.005359819648501709,0.26537421018901747,0.6810549847934283,0.01780689000003888,-0.6212593126407149,0.7484111730430953
9.232972621917725,1.3336743404302813,2.669439206107586,2.515993075946904,0.362222941180141,0.14966393261203925,0.00569770714761767,0.24694563158233543,0.6980344967297201,0.015990752300319783,-0.6271580579492126,-0.2949372654248883
9.253063917160034,1.333735830695025,2.6694765124984743,2.515998591981034,0.3639534423607854,0.1510306865613865,0.005841655750872045,0.2200913269235043,0.7059328999637379,0.014278932233379914,-0.6220074368181416,0.25753105655355046
9.272990226745605,1.34866451585238,2.6760978198674827,2.516250293553493,0.3772996897837237,0.17951577927114573,0.006594026302004843,0.18967148273742235,0.7006923714988187,0.012600787380808326,-0.617760283961434,0.21235764283538128
9.293024063110352,1.3562464603555513,2.6798278997296503,2.5163845848583772,0.3807963165120953,0.19347308686829895,0.006829676624604789,0.16013811152449398,0.6949564784905294,0.010972509523887258,-0.6174843077593648,0.01379881010346029
9.313081741333008,1.3640662871160834,2.683835936912057,2.5165384834036435,0.38806727417846676,0.20745294221696314,0.007424537946229101,0.13026632897965132,0.7010494285164441,0.009405049896670407,-0.6160149778408099,0.07346649592774313
9.333112716674805,1.3718517410765192,2.6881255626384246,2.516688753068091,0.3903816551404552,0.2215266667377894,0.007597362906519409,0.10132613163352913,0.7061605581821299,0.007885363296265324,-0.6145315229982073,0.0741727421301297
9.35306978225708,1.3758725619912422,2.6903846258945343,2.516779304651247,0.3943100999187554,0.22888213917775924,0.008075099982184785,0.07249428193431733,0.7118940244417558,0.006430036344985849,-0.615496408838144,-0.04824429199683511
9.372915267944336,1.3878526511311025,2.697574435842674,2.5170422151822347,0.3996182965315773,0.2503115163945335,0.008766558847385511,0.04862025491995882,0.7109559563399861,0.004998507577284366,-0.6128489824966867,0.13237131707286576
9.39304256439209,1.395853186749281,2.7027227590191423,2.5172184529009196,0.4003581637644553,0.26451529232254706,0.008852592715449397,0.025489654756564766,0.7093034556671551,0.003612407185708525,-0.6139950867864097,-0.05730521448614745
9.413144826889038,1.3999459444455524,2.705406711727243,2.517325526921324,0.4028227938663257,0.27181088132451675,0.009402268285888301,-0.002947343845351117,0.7225255114666247,0.002278549694849183,-0.6131714166332403,0.04118350765847101
9.433032751083374,1.407999964499517,2.710988249621874,2.51751394125414,0.4024877123566886,0.2863825699407963,0.009434863970047504,-0.030397295040664293,0.7344243611992995,0.0009882335586987676,-0.613182529286624,-0.0005556326691857905
9.45311713218689,1.4161737837184578,2.7168497089722026,2.517732226063041,0.4048511651703133,0.3007293617237229,0.010178478438398992,-0.05997438080231989,0.743549413568858,-0.0002708393793748742,-0.6139817453442822,-0.03996080288291015
9.472938776016235,1.4283682206638022,2.7261779936053916,2.5180565273433175,0.4049041084085053,0.32245418946843335,0.010703425886212297,-0.09532652826517568,0.7727877648090881,-0.0015077785288739618,-0.6144136863734864,-0.021597051460209293
9.49299144744873,1.4364449517199651,2.732783478159488,2.518270213956361,0.40265588183584355,0.33818467332404795,0.010661252966927787,-0.12926144388443178,0.7999104712706369,-0.002702522176843713,-0.6145574863480388,-0.007189998727619162
9.513091802597046,1.4405285424335914,2.736159982802041,2.5183948093306294,0.40294064175018696,0.3449994684926428,0.011140973182835563,-0.15444565203864824,0.8178052262097015,-0.0038511370615175837,-0.6156217891428724,-0.05321513974168024
9.533347845077515,1.4485548431626714,2.743224638273358,2.5186167840187745,0.3996092083342054,0.3615198777289971,0.011052801774604782,-0.17851274785754953,0.8339453757046431,-0.004959302198868542,-0.615658773446869,-0.0018492151998339423
9.553086519241333,1.4566304169228816,2.7504939756645324,2.5188653862116945,0.39867405937025685,0.37517079153340704,0.011656092761425457,-0.21150714484642064,0.8561222935014028,-0.006037820965589395,-0.6186432370427051,-0.149223179791802
9.572972774505615,1.4685568460575806,2.762048589926287,2.5192298744831607,0.39387939444467984,0.398565411177607,0.011963413969045442,-0.2319077681407618,0.874304662074842,-0.007091148002641444,-0.6197415304818499,-0.0549146719572402
9.593053579330444,1.4763867431640547,2.7701958774934963,2.5194676562614955,0.3890456951099141,0.41621771638010524,0.011811382580705396,-0.2512943311475445,0.8906163709858745,-0.00810554095824181,-0.6216431516159822,-0.09508105670661404
9.613089799880981,1.4802986253995136,2.7743275814317436,2.5196012073123537,0.3873468177310221,0.4230904725156151,0.012171424095767585,-0.26211431005391855,0.9000820128302791,-0.009076065105137117,-0.6217285551989575,-0.004270179148768705
9.633172035217285,1.4879924461335294,2.7829699629061277,2.5198427577438345,0.38200109018848555,0.44117420956776515,0.011980508041566924,-0.2723640905656004,0.9080427876310302,-0.010009375909428386,-0.6257879090592771,-0.20296769301597628
9.653227090835571,1.4956028354277977,2.791865457962267,2.5201030937967586,0.37707682504615125,0.45666344527310504,0.012333480126319853,-0.2690033203252187,0.9072439533826726,-0.010906892370295358,-0.6262555826974627,-0.023383681909283638
9.673124313354492,1.5067685601627243,2.8059279071935372,2.5204806013920114,0.36808827773341934,0.4826507303617151,0.012348600616755625,-0.28199726473285486,0.9093089633935851,-0.01177060657408912,-0.6345832897142061,-0.4163853508371673
9.693027973175049,1.5140730968047154,2.8157628539974673,2.520725163460656,0.3623245219832961,0.500846359260454,0.012104844237003103,-0.2942567852320103,0.9100320951372386,-0.01259921704385143,-0.6311073239757468,0.17379828692296595
9.713066577911377,1.5176313559659247,2.820794811059315,2.520854424305272,0.35790476915262165,0.5093434014320078,0.012215679862061193,-0.29578325535992556,0.9082083724557716,-0.013378235693823182,-0.6392619199652598,-0.40772979947565346
9.733059406280518,1.5247302087368315,2.8311631374862087,2.5210960119820855,0.3519764707320911,0.5274790587164042,0.011940601650359182,-0.29699450879295614,0.9051539527369147,-0.01412409332106578,-0.6367677884688803,0.12470657481897796
9.753047227859497,1.5281827786922824,2.836478944074543,2.521221171771201,0.3475896743164988,0.536363713202645,0.01197224662853323,-0.28318524551437724,0.8953316839082405,-0.014819937092746165,-0.6444756644567398,-0.3853937993929746
9.773116111755371,1.535078843270145,2.847384583220939,2.5214576078895616,0.3420619831607904,0.554164359164278,0.011669149730905218,-0.2696253163200774,0.8845792802147986,-0.015484586694159906,-0.6432095593605776,0.06330525480811033
9.793006181716919,1.5450365598944,2.864461124393052,2.521809616034268,0.32962309253428934,0.5820497534380036,0.011378483060121763,-0.2755582161639949,0.8840185737228279,-0.016090750952844544,-0.6608154007429872,-0.8802920691204807
9.813129425048828,1.5515097410439105,2.8763036469674317,2.522034231300839,0.32184874659824686,0.6005859449053281,0.01105837536342513,-0.29178966223477243,0.8877394036297477,-0.016652253062197888,-0.6466034052216085,0.710599776068932
9.832989692687988,1.5578873166978768,2.8884930944863325,2.5222520323184736,0.31585742550072404,0.6183667318835342,0.010719947521918793,-0.30720783876763313,0.8901172266513372,-0.017185922505814518,-0.6780193317575067,-1.5707963267948966
9.853117942810059,1.5640010244287432,2.9010964760493434,2.5224524513348063,0.30618716836857107,0.6375920922411389,0.010085722445018978,-0.3195447097319438,0.8913876029016748,-0.017642218595725914,-0.646603405221609,1.5707963267948966
9.872923135757446,1.5729845900539376,2.920653638636842,2.522723674954446,0.2948793119672333,0.6653529278797639,0.008845641844904146,-0.33176155237749516,0.9191643770359937,-0.01800503184889592,-0.6780193317575067,-1.5707963267948966
9.893019199371338,1.5788150479293273,2.9341462610252127,2.522896963710273,0.28812830761779573,0.6839938611615582,0.008482098410692944,-0.3432121302593888,0.9445300237407402,-0.018345635021964818,-0.6791262576529347,-0.05534629477139674
9.91310429573059,1.5816371315512594,2.9410367870879144,2.5229444808347328,0.2834889192576652,0.6934643520007254,0.007287494536759372,-0.3457571512891295,0.9422930939084521,-0.018580388096590468,-0.6852370040442661,-0.3055373195665734
9.933025598526001,1.58723760526708,2.9550943233144937,2.5230864999211344,0.2765510616763887,0.7122778031753051,0.006913693038806991,-0.3479744360858475,0.938853180117136,-0.018796711795688533,-0.6900626052638152,-0.2412800609774557
9.953096628189087,1.5899536939060148,2.962233980343417,2.5231387942212304,0.272147255728417,0.720647068895746,0.006306223320389828,-0.3462386366971483,0.9159953670867474,-0.018952154508965712,-0.6896385323155556,0.021203647412981752
9.972869634628296,1.6004950747134172,2.991803226421113,2.5233714259030298,0.25688817684226345,0.757410631186639,0.005454160446806658,-0.30574979208596365,0.880830805110736,-0.019053077057954785,-0.7210544588514534,-1.5707963267948966
9.99301552772522,1.6055743234718036,3.0071252497729875,2.523476692492495,0.2511673967530545,0.7746737515098362,0.005072210265302551,-0.26654022396555477,0.8454452245520216,-0.019139550992185447,-0.6896385323155556,1.5707963267948966
10.013251304626465,1.6079915995503637,3.014967669674015,2.5235156085860053,0.24633196959452083,0.7844118680379915,0.004517152207233358,-0.2387211800091649,0.806074522020378,-0.019176105756491035,-0.7210544588514534,-1.5707963267948966
10.033133506774902,1.6128723079793466,3.0308145000458238,2.523602114597581,0.24182885223135572,0.8001401240880481,0.004133368715646374,-0.21172735401347498,0.7667610995670141,-0.01920017938763123,-0.7042727764572554,0.8390841197098986
10.053094387054443,1.6174324043977506,3.047171977425864,2.5236221386736424,0.23197897495592645,0.8203603755904118,0.0022780300747896314,-0.17216793105611286,0.7288126211160079,-0.019095518718506132,-0.7356887029931531,-1.5707963267948966
10.072895765304565,1.6241407096811904,3.0722724784763624,2.523649401038932,0.22213157717715293,0.8464474563725538,0.0007729445739145252,-0.13768210481927193,0.6811715950809765,-0.01890210314754651,-0.7206373385061284,0.7525682243512355
10.09307861328125,1.6285580475957664,3.089334504781756,2.5236610926597574,0.2197134219984226,0.859597633496746,0.000396879216505867,-0.10431957932717455,0.633909427471382,-0.018703592613073774,-0.7520532650420266,-1.5707963267948966
10.113256216049194,1.630587187110153,3.098115706114075,2.523636455474934,0.2144475970939114,0.8699162692789087,-0.000551485286996967,-0.05693047102981579,0.587439848686751,-0.01844652592281214,-0.7206373385061289,1.5707963267948966
10.133081912994385,1.6348678299478434,3.1156284404033383,2.5236217537464802,0.21376917353113942,0.8812035223355178,-0.0009178210624139984,-0.011184099121930241,0.5413486872599645,-0.01818657853017167,-0.7520532650420266,-1.5707963267948966
10.153082132339478,1.6388470609103685,3.1336563566876365,2.5235553584743045,0.2062928090867827,0.8990691521431308,-0.0017387739093860483,0.008224576390542847,0.49544900073675646,0.06714252688341302,-0.7402111647268592,0.5921050157583707
10.172913551330566,1.6448497605589059,3.1610505632305586,2.523456986753205,0.20144637784195618,0.9192771905351882,-0.0013910650561977825,0.03916607697190759,0.45573547813347504,0.14303978589424488,-0.771627091262757,-1.5707963267948966
10.193101167678833,1.6488885300620388,3.1795246201108913,2.523462675748621,0.20253011404082943,0.9279970230345621,0.002202474849579864,0.0690287501784673,0.4162931798993027,0.21579350638924963,-0.7402111647268592,1.5707963267948966
