t,x,y,z,vx,vy,vz,ax,ay,az,yaw,yaw_dot
3.450019598007202,3.839904623945321e-06,-4.616735870439578e-07,2.0080004430324876,0.0005747476549563617,-6.909799201099994e-05,8.00398251916675e-05,0.05722740938139381,-0.006879217188797236,0.007954782631522338,-0.031415926535897754,-1.5707963267948966
3.4698281288146973,1.511146949073458e-05,-1.8878126274297167e-06,2.0079965943647973,0.0016911634591752918,-0.0002140240033936383,1.3287426267087336e-05,0.11156249868054813,-0.014479618624258712,0.015499283524018465,-0.06283185307179551,-1.5707963267948966
3.4900360107421875,7.479841684867836e-05,-9.560092862019349e-06,2.0080004489928447,0.0044539109711670185,-0.0005778185195132257,0.00039639569559075737,0.1644766513686312,-0.021864003035695533,0.022765435334545416,-0.09424777960769326,-1.5707963267948966
3.5100460052490234,3.936200327932739e-05,-5.179610880594811e-06,2.0079310380780537,0.0038957762518224423,-0.0005261732272231606,-0.0016240956681913266,0.21386426050686783,-0.02974059684237793,0.029642598939709372,-0.11236001611647284,-0.9056118254389789
3.5300440788269043,0.00016327651613205153,-2.2164275918726072e-05,2.0079049299718865,0.008655882051642833,-0.0011977480434651826,-0.0009646689076333605,0.2619265972694353,-0.037377067564256516,0.036256465458620796,-0.11310329117748852,-0.03716375305078401
3.5498626232147217,0.00014142773881321329,-1.4664035872342864e-05,2.0076195557792227,0.007820963594477438,-0.0008211853810632411,-0.0054893903087572075,0.3006045059873948,-0.02399810540742439,0.04267721875825401,-0.08280178715837883,1.5150752009554846
3.569875478744507,0.0003604972958593786,-3.5016582405778374e-05,2.007518718719505,0.014211646753096687,-0.0011708804464642386,-0.00457376151607576,0.3383010608679353,-0.011041378653305088,0.048843515779922395,-0.0704961314691257,0.6152827844626563
3.5899486541748047,0.00044369767746837107,-3.868515891528692e-05,2.007154328674923,0.014613617754537633,-0.0008097321902925273,-0.011697023276008793,0.3736976548631974,0.007907438285309565,0.05500442704759216,-0.04721312175470205,1.1641504857211826
3.6099555492401123,0.0008130265001772539,-5.206790141790526e-05,2.0069317872203905,0.022434401118483945,-0.0004675651797085317,-0.010537424464498969,0.40823876899061623,0.02620062997966572,0.06091379359018449,-0.0189494202810514,1.4131850736825324
3.629962205886841,0.0009028897006694602,-7.783986710071887e-05,2.006408556868034,0.02248628882542343,-0.0008001913598515728,-0.022121563564205245,0.44716097097283,0.03693322283147267,0.06711086537329264,-0.03385149700735468,-0.7451038363151641
3.649852752685547,0.0016176598500225977,-0.00013885221912163955,2.0053106239833505,0.03164676104618291,-0.0012002989325215342,-0.0328128609320451,0.4833257169990711,0.040457540239386275,0.07366718448457715,-0.0346789760232733,-0.04137395079593098
3.669945478439331,0.0023496224472365893,-0.00015453788380173294,2.004669523655015,0.04166680237249092,-0.0003569290589586463,-0.03127622488631892,0.518516990187166,0.04385910683559623,0.07995134616177185,-0.007909526348483187,1.3384724837395057
3.689866065979004,0.003082745289390714,-0.00022079731456857096,2.0037462068163405,0.04728834131387665,-0.0012577947433800919,-0.036963448972403716,0.5571638818845099,0.026370107565705268,0.0861033605125886,-0.02609033309171238,-0.9090403371614597
3.709899425506592,0.004142462771818168,-0.00024181787173818283,2.003024555381588,0.058808330524104634,-0.0009007437359835998,-0.03518207034396771,0.594641174096434,0.009425180584028735,0.09199066423068186,-0.014473028022366385,0.5808652534672998
3.7299885749816895,0.00463408141699188,-0.00026306662383549184,2.002566038267467,0.06150648994258623,-0.0011778548842632196,-0.03752168390674482,0.6329578206424219,-5.073196706282204e-05,0.09755090330620454,-0.018545539605833827,-0.2036255791733721
3.7504825592041016,0.005993298150968002,-0.0002872514048084607,2.001835472883016,0.07453897346985286,-0.0012712648891816773,-0.03551715688644786,0.67009504109594,-0.009243283108534804,0.10286025264513428,-0.016407741036617907,0.10688992846079604
3.7699484825134277,0.006630181771070169,-0.00026924326401922083,2.001372413994948,0.0774611922091514,-0.0004061762085686397,-0.0375434145911723,0.6956090179064883,-0.004199208616317887,0.10785544034843766,-0.005066052811725452,0.5670844112446227
3.7899348735809326,0.009127863606958265,-0.0002447364966760373,2.0002494442021628,0.0946329357990597,0.0006210660874898684,-0.035356373648057396,0.7181240955981418,0.006555077686416008,0.11245076722454544,0.006495643027112585,0.5780847919419019
3.8099899291992188,0.011165616237664005,-0.00023030379422905032,1.999565101878323,0.10921525316599033,0.000856947658279625,-0.03306329689775492,0.7400019697979692,0.016978189114535476,0.11681936830560095,0.00774640214043254,0.06253795566599774
3.8299026489257812,0.013370542149122795,-0.00019523016833423136,1.9990341721354714,0.12117733283690925,0.0016231873537574967,-0.027707855318382782,0.7618486611090642,0.04179925442892277,0.1204595287162743,0.013194772812699096,0.2724185336133278
3.849928617477417,0.015947881757885123,-0.00015279416232133963,1.9985043395967559,0.1366272384683044,0.002700332699297142,-0.025263931137976117,0.7830319053734162,0.06577525350999833,0.12389979805888902,0.01926868643437185,0.30369568108363776
3.8698983192443848,0.020319830659354197,-0.00013882236285841235,1.9980956874614102,0.15867875694553754,0.002426176906313128,-0.014874826087119779,0.7982914346753679,0.08205673965835195,0.12635213195453732,0.014744457457429139,-0.22621144884713562
3.889958143234253,0.02365405435855218,-7.282973098150681e-05,1.9978236165990424,0.1747926790052958,0.0042255150670022215,-0.012324635035231676,0.8130113462299073,0.09778548110868412,0.12863970459546856,0.02350662900582634,0.4381085774198601
3.9099388122558594,0.025446720910226688,-9.278910369371922e-05,1.997862103289382,0.18325594832362344,0.0032644311039261636,-0.006560420490343653,0.8319611687980322,0.09309781814349478,0.1303145060644315,0.017046452822629288,-0.32300880915985264
3.93011212348938,0.02927945937825597,-9.18814298690987e-06,1.9977570623277443,0.20007866493699608,0.005080391415161515,-0.0039385658198832375,0.8501912487716877,0.08851573829054406,0.131847496219784,0.024586032476137998,0.3769789826754355
3.9499166011810303,0.03347005552221728,2.6046027829495572e-05,1.997945446633855,0.21773022313328141,0.004865233566182441,0.004720932256988918,0.8659461184237697,0.08350052602112397,0.13263529216109293,0.02133912414891803,-0.1623454163609983
3.970017910003662,0.04041703105721346,0.0001962834591362971,1.9983003710172735,0.24457903091633512,0.007027407289550308,0.013076652204818004,0.8795507165340938,0.08133761219515664,0.13284887259419328,0.02759699556008055,0.31289357055812594
3.9900002479553223,0.04548539955998503,0.0003529566118556805,1.9985884832347687,0.2623012225556671,0.00863281012914963,0.015734959536749665,0.8925717951949754,0.07920825417958281,0.13296589582634902,0.031246923121216685,0.18249637805680674
4.0098958015441895,0.04819648424290846,0.00044803907333853637,1.9988973729285966,0.2725930942078667,0.00955098909839422,0.021179283630555094,0.9031592168736086,0.07576188974564524,0.13264523510943355,0.033041121287813,0.08970990832981585
4.030013561248779,0.05382965895404359,0.00065398580475982,1.9993474622842475,0.2907580148802371,0.011032484416049114,0.023828317914281714,0.9132507125559489,0.07240198865586495,0.1322450514230248,0.0356609971109596,0.13099379115733
4.049976825714111,0.05683040874243135,0.0007800492105066986,1.9997250659373902,0.30136132269830845,0.012099890398384978,0.028910111542552765,0.922747632899838,0.0719517920548999,0.13146866684565484,0.037551324281418275,0.09451635852293361
4.069901943206787,0.06970492652509738,0.0013418844949837881,2.0011671202983727,0.3404183619554462,0.015455327497864107,0.03861093690978792,0.9275523846729088,0.0697940438677063,0.13011375113814544,0.04230038763264554,0.23745316756136337
4.0898964405059814,0.07669910813280609,0.0016648078736639445,2.0019652691705674,0.35901472165025605,0.016829942461260426,0.041199281798852065,0.9320293072504804,0.06767366867439553,0.12871321380318537,0.04330091244819689,0.050026240777567565
4.109987258911133,0.0804063255281036,0.0018493592064382836,2.0024854754057353,0.3703978963812309,0.01785813717340175,0.04535281151994228,0.9353312161915687,0.06498864741405444,0.12707170525789685,0.04444811348363453,0.05736005177188197
4.130017042160034,0.0880015556086981,0.0022193439257482284,2.003417834776035,0.38913517197244724,0.019131600960372457,0.047877536383958655,0.9383493680539796,0.062368499435789655,0.12539498130569313,0.04522632814273475,0.03891073295501091
4.149911880493164,0.09608727513544946,0.0026445456812840703,2.004534699912274,0.4108291226797286,0.0210941428045349,0.05367163278971228,0.9408433919964106,0.055068456213255096,0.12339558578189339,0.04715518766764326,0.09644297624542553
4.169883966445923,0.10891585833502104,0.00333023923418322,2.0062735560939933,0.4413833444363241,0.02354341522604543,0.05942167351802901,0.944388858520294,0.05270791603862647,0.12113348454586959,0.04880557417581288,0.08251932540848106
4.19000244140625,0.11793262440074984,0.003811493576569376,2.0074860648019595,0.4603040849310247,0.024574272106134682,0.061821613701791095,0.9476357634072464,0.05038384269126336,0.11885842101930472,0.04869913238086099,-0.005322089747594738
4.2098798751831055,0.1226637417995444,0.0040893193336083745,2.0081721036079494,0.47211937821376354,0.02591475990843204,0.06473697405813948,0.952149154097237,0.05020408610101706,0.11649360266217804,0.050072668627172856,0.06867681231559342
4.229949474334717,0.1322968426237962,0.004617641980520028,2.0094899837662874,0.4912045867893901,0.02691681356468779,0.06704313336096658,0.9563140059469646,0.049996730919365795,0.11412108663502497,0.049859504278459976,-0.01065821743564399
4.249824523925781,0.14761580158041293,0.005500298711953152,2.0116641973799028,0.5231900527822425,0.029506202134025102,0.07286142620714485,0.9514165612942695,0.04689424177978082,0.11148473609843185,0.05131764294844521,0.07290693349926158
4.2699055671691895,0.15826955675825044,0.006099598492516481,2.0131435472457277,0.542168961206389,0.03041368215485149,0.0750647827906396,0.9464654445057656,0.04386610148434819,0.10885146689974545,0.05090465033992686,-0.020649630425917387
4.289902687072754,0.1694075104780663,0.006742374250928843,2.014726264376875,0.5637106042987927,0.031887989150257375,0.07867929380724004,0.94098323589259,0.0383908756446131,0.10611850127164038,0.051360224078909944,0.022778686949154192
4.309947967529297,0.1808695524672085,0.007387455259578353,2.0163208921765325,0.5824752367576764,0.03260239791818946,0.08077440447787747,0.935475892974183,0.03307670974862292,0.10339400214204628,0.050769815460056655,-0.029520430942664433
4.3299126625061035,0.18681639747391995,0.007734110915383718,2.0171644189228766,0.5939465400859595,0.03343778014302028,0.08264459038201571,0.9310585694898854,0.028038953796337265,0.10069241928048757,0.051113471822477496,0.017182818121042054
4.350255012512207,0.20513250882328762,0.00877563234630508,2.0197150580580043,0.6240613295544197,0.034970648944318505,0.08637220910581318,0.9241075917433272,0.0224192426460277,0.09789376991538687,0.05083201585338237,-0.014072798454756175
4.369986534118652,0.21779809424275137,0.009479163710532385,2.0214618951210546,0.6424740899376284,0.03536436647917159,0.08830221537753848,0.9171708639160262,0.016982910107128525,0.09510922716461309,0.049947054006767466,-0.04424809233074534
4.389856338500977,0.23094204267210544,0.010227253367836439,2.023276770779345,0.6635346714408812,0.03646386570806699,0.09090893430769281,0.9121337840153173,-0.00392879398342007,0.09231205077753275,0.04993417856974336,-0.0006437718512053436
4.40998387336731,0.2443948234760487,0.010954378631459902,2.0251132262194336,0.6817263810586588,0.036180807227901804,0.09272734068134922,0.9070254441955992,-0.024284913231049646,0.08953134798581924,0.0482163753474123,-0.08589016111655301
4.429911851882935,0.25132255554123334,0.011348145959468712,2.02605992871678,0.6925455752237444,0.03684222779028232,0.09401791096169719,0.8962364525999743,-0.03182204881363347,0.08682646948133707,0.04847501739968596,0.01293210261368305
4.449928522109985,0.27256535213369404,0.012493682357227996,2.0289328418728303,0.7211683670146044,0.03727887373801642,0.09697244083785826,0.8887381220623641,-0.05095377763496093,0.08407402546638307,0.0470667751450331,-0.07041211273264292
4.4700047969818115,0.28716596766843533,0.013227819612548875,2.030888922928087,0.7388682229852913,0.03607280930377117,0.09862655192278393,0.8812490934144964,-0.06956661013875305,0.08134019850341578,0.044555842391281075,-0.12554663768760133
4.48990535736084,0.30220536367985484,0.014019318499850426,2.0328916347618424,0.7585138046413817,0.03674796126634814,0.10056840818763717,0.8686544060645743,-0.07756150602887812,0.07864420456761334,0.04440624951081551,-0.007479644023278276
4.509969234466553,0.31754854108438096,0.014738247485761692,2.034918552991243,0.7757626245221236,0.03511928975446661,0.10211449201330128,0.8562609922625679,-0.0852558337855046,0.07596738510135843,0.04149523657020371,-0.14555064703059006
4.52993106842041,0.32540175916906394,0.015139728118505627,2.035949882125201,0.7857152009416903,0.035718802949393905,0.10302857531712128,0.8432777010273991,-0.09373538918955346,0.07339440185859271,0.04188729077941744,0.019602710460686623
4.55005407333374,0.3494126699287973,0.01621418149343324,2.0390795961751755,0.812609757514018,0.034098845834911996,0.10537041313804776,0.8301540579384815,-0.10151788682153937,0.0708060744076208,0.03862184661912371,-0.16327220801468645
4.569958209991455,0.3658300325680629,0.01687535164519199,2.0412009940541305,0.829083532470083,0.03199326905036616,0.1067608108214212,0.8172618417958247,-0.108988034187149,0.06823689568092851,0.035719900732795296,-0.14509729431642082
4.5911688804626465,0.3826554999911376,0.017538836643000492,2.043354553783267,0.8473222015078075,0.03099148183455109,0.10821702769386839,0.8050305898551733,-0.0994596983416123,0.06573570035810108,0.034031023877432176,-0.08444384276815597
4.609970808029175,0.3997621456714903,0.01813940154784418,2.045531875658789,0.8633023246762949,0.029096236040268925,0.10950688445869834,0.7930180004435765,-0.09009146048648811,0.06325308250436144,0.03144714494785239,-0.1291939464789893
4.629944562911987,0.4084816584413156,0.018436619892172237,2.0466319697386814,0.8724668265628326,0.02855140244147151,0.11016905246497659,0.7836780359249965,-0.07783564559486515,0.06088704976969882,0.03067999106810415,-0.038357693987411956
4.650002717971802,0.42608711397184773,0.018992883727450564,2.048847371280684,0.888047996669566,0.027114892549947752,0.11136326957441045,0.7744590765334141,-0.06586215859709194,0.058537403838934535,0.028657572848775903,-0.1011209109664124
4.669992685317993,0.44407055373081444,0.019477974516781446,2.0510901227356,0.9051128977487166,0.024673588826975245,0.1126068188238993,0.7661638130564598,-0.054500402004784905,0.05626156642095584,0.02567419616836819,-0.1491688340203856
4.689873456954956,0.47159951975429426,0.020137667525490576,2.054495236160262,0.9288704111600505,0.021489064706165482,0.11431915219017907,0.7563971836187487,-0.04558897161411708,0.05399506729522143,0.021900528554748,-0.18868338068100954
4.709988594055176,0.49032756371793496,0.020558915846816114,2.0567922679270745,0.9439019233493543,0.020664854772187345,0.1153765235198092,0.7467786063564623,-0.03686273787002003,0.05174477806074866,0.02087331150904248,-0.05136085228527598
4.729929208755493,0.49982170986982644,0.020702995282973796,2.0579488811232585,0.9517508917461865,0.018580022942409548,0.11588095709102722,0.7341939808472585,-0.03519621624717086,0.04961400298904675,0.018643717670129067,-0.11147969194567064
4.749972820281982,0.5190027411311811,0.021067671552222444,2.0602762817028073,0.9663111913269613,0.01789342188687122,0.11685204426943926,0.7218810142586951,-0.0334508682580804,0.04749702713523652,0.017759060954789962,-0.04423283576695525
4.769994497299194,0.5287215145207131,0.02118365229121965,2.061448450073908,0.9739950072302181,0.015874874219629753,0.11734378008879637,0.712259981833655,-0.028617057109371558,0.04549427182681002,0.015652090787894757,-0.10534850834476028
4.789915561676025,0.5682855250542976,0.02171826327031336,2.066181235304444,1.0031963157803285,0.012856706945774045,0.1192039239166296,0.7005832419719256,-0.0257333611558389,0.04347719241687943,0.012347656649894123,-0.16522170690003168
4.809913635253906,0.5884888025158936,0.021970446301055418,2.0685738753904626,1.0170933697572702,0.012371428975168252,0.12005340390060669,0.6891650091529249,-0.022783530552609812,0.04147295953159311,0.01179833321699375,-0.027466171645018633
4.829908132553101,0.5987030229142866,0.022052644172560733,2.069776127911893,1.0241408398836125,0.011057156090009247,0.12044036845150703,0.6797857461521263,-0.01601012222206898,0.03958654442995585,0.010480053761382724,-0.06591397278055133
4.849931478500366,0.6193211812353898,0.022271032609964988,2.0721927273466862,1.0376443709710876,0.010803984511606572,0.12121332158223404,0.6705993356626457,-0.009321056645143974,0.03771051360430093,0.01013410760614386,-0.01729730776194316
4.869968891143799,0.6297413465788241,0.02233785234776749,2.0734075231887856,1.0445036617433296,0.009649373009271926,0.12159592728542978,0.6567279644464726,0.003140184698840326,0.03594643387428806,0.008993995985717262,-0.05700558102132991
4.8899147510528564,0.661383418428875,0.02257807383552479,2.0770733535696957,1.064409122810007,0.008373359127369482,0.12270943913752608,0.6426013412197497,0.014116521967150492,0.03420323322768101,0.007672717123553774,-0.06606394310817443
4.9100048542022705,0.6827991968377667,0.02274908514489639,2.0795342671927304,1.0771227915084767,0.00876363153320497,0.12337613971807253,0.6288233058648367,0.024874468691237696,0.032468201989404845,0.007960287326140847,0.01437851012935365
4.9299445152282715,0.7044802008302572,0.022846402520035454,2.08200962139726,1.0899460286317406,0.007153240714047769,0.12404476076330366,0.6183802448686012,0.02270117292373924,0.030821055397211965,0.006410641599971623,-0.07748228630846121
4.950732469558716,0.7374658992185669,0.023022506505533006,2.085745341037777,1.1086482743139876,0.00636425376666117,0.12496901056248808,0.6068937704081886,0.007942104792922743,0.029200770679804068,0.0056246659626109086,-0.039298781868035704
4.969904661178589,0.7597594911775943,0.02315043471774762,2.0882504537043243,1.120673530737023,0.006381942778580774,0.12553687657784943,0.5956764604500405,-0.006045467356822355,0.02758691968348871,0.005590138061719152,-0.0017263950445878251
4.989891290664673,0.7822938472103238,0.02325644974805917,2.090766366438309,1.1324821130187706,0.005902510825262745,0.12606783442072336,0.5793627817002561,-0.007819895180255998,0.02606505908508801,0.005114594899978897,-0.02377715808701275
5.010007619857788,0.8050582978795509,0.02337283133731876,2.093292834912892,1.1439101344375908,0.0057306412311860485,0.12657395571601318,0.563516847831682,-0.009322024745459147,0.02454786616321893,0.004920832385985285,-0.009688125699680583
5.029940843582153,0.8165252419821388,0.023449956236459634,2.094559622306379,1.1493708271067806,0.006265887734043216,0.12680081176068186,0.544534059747373,-0.004750976948565122,0.023137607458258987,0.005359603373397359,0.021938549370603688
5.049814462661743,0.8512656199239178,0.023654928168194856,2.098374448505552,1.1659550089100554,0.006722975140980157,0.1274930410905082,0.5247494851360298,0.004763314637188055,0.021756670644653316,0.005663583201129363,0.015198991386600191
5.069934844970703,0.8746883819009622,0.02379096679231232,2.100928568700236,1.176257295079253,0.006912080166011572,0.12791438211088904,0.5055812495056885,0.014121199014036996,0.020377794471088888,0.005767619171879179,0.005201798537490809
5.089884281158447,0.8983390821937799,0.023933178972555504,2.1034900038051503,1.1868760552540136,0.007290168316104679,0.1282865342863419,0.48934363275459397,0.03263213535018054,0.019090046322121117,0.006028139418248646,0.013026012318473335
5.109960556030273,0.9221734150717957,0.02408671716661047,2.106059466661199,1.1965048080048883,0.008123645865964738,0.12865545967006753,0.47361617041752396,0.050630656141310765,0.017802555990158116,0.0066613599722868955,0.03166102770191248
5.129940986633301,0.9341820920097487,0.02414677699062468,2.1073459564870203,1.201679406356272,0.008111583475548264,0.12879488520622048,0.4604384977527332,0.07309908912624503,0.01661657228281086,0.006612673582279349,-0.0024343195003773133
5.149939775466919,0.9583069100950726,0.0243250922611029,2.109925098342878,1.210759859093892,0.009792567591011124,0.12911534075019898,0.4476754944562412,0.09488641720051656,0.015428688021074005,0.007929579666836606,0.06584530422786283
5.170029401779175,0.9826468530237014,0.02445246351749152,2.1125102971386434,1.220474237735566,0.009555025100659469,0.12941093590921346,0.43781445481854375,0.10912783928351531,0.014327102791390546,0.007650668352425338,-0.01394556572056338
5.189887046813965,1.0194685058001283,0.024721943062662597,2.116399190080804,1.233793578990605,0.011009915400584472,0.12983520116784117,0.4278293828534504,0.11575702914835506,0.013255852055236259,0.008730053087046219,0.053969236731044035
5.210003614425659,1.044229293900833,0.02496572756722961,2.118998473651261,1.2422530334250645,0.013390155877432228,0.1300895714038134,0.4181700215819017,0.12224329496341893,0.012180514702554313,0.010525766053520957,0.08978564832373692
5.2299299240112305,1.056668805464738,0.025057908286785623,2.1202998853381927,1.246239524646108,0.01345081405061914,0.13020004888259332,0.4113231492463996,0.1418348506445116,0.011197847152920349,0.010497871324954389,-0.0013947364283284358
5.249882221221924,1.0942345383908385,0.02548294640732592,2.1242115781842053,1.258325052418892,0.016665303993509177,0.1305464918812445,0.40590534864072336,0.16208471379682032,0.010244282719532562,0.012890792123940287,0.1196460399492949
5.269944667816162,1.1194818673090319,0.025849984857784714,2.1268244929791043,1.2663903117037916,0.020103740015686943,0.13074178731871014,0.40064701033604244,0.1816445332069624,0.009284200944166723,0.015380420674840689,0.12448142754502012
5.289916038513184,1.1321475729360808,0.02601884014955438,2.128132811299447,1.2698153187674404,0.020914093182041973,0.1308394932705988,0.396111086957667,0.20268174721793805,0.008411664957807097,0.015876038725559205,0.024780902535925797
5.3100056648254395,1.1576228037252292,0.026479022582037867,2.1307512249114575,1.2776929461784463,0.02517172747766102,0.13099893180847705,0.3916668850842279,0.22295511943571333,0.007530833879879542,0.018979794169560193,0.15518777220004942
5.329890012741089,1.1832183982358944,0.026926934605697887,2.133374758566942,1.284538777373496,0.027251242972284435,0.13119600684321336,0.3865255728872302,0.2424469289335662,0.006726921259568983,0.020312325264170372,0.06662655473050894
5.34987473487854,1.2218973811090803,0.027782665794253415,2.1373153703210783,1.295174426851755,0.0326404543655943,0.13144016453622723,0.37901908192956035,0.2576731376458397,0.005949323066544806,0.024073262496349113,0.18804686160893702
5.369922876358032,1.2478761819776865,0.02848799419759896,2.1399453111217377,1.3026812341791045,0.03794111726566744,0.13155128937721916,0.3716913070410821,0.27229264927709695,0.005161483138516375,0.027621489384447973,0.177411344404943
5.3899266719818115,1.2739535064966476,0.029217914518298044,2.142579606481972,1.3087737386274727,0.04146861463947642,0.13170389907419897,0.3610213040028246,0.2856374174318886,0.004448634968604519,0.02984385057049277,0.11111805930223984
5.409924507141113,1.3002004888852772,0.03010527567602365,2.1452145260820883,1.3158899114404263,0.047310102269285635,0.13178564593450373,0.3506446160812809,0.29841787444235435,0.003724140130603809,0.03372295375863299,0.19395515940701102
5.42993426322937,1.3133494373427608,0.0305553076716375,2.146533836459688,1.3185226550275078,0.049359329191546016,0.13185262393756303,0.33925210320667304,0.31164037689127955,0.0030767052048587575,0.03485421996413551,0.05656331027512618
5.44991660118103,1.339786996859879,0.031605675574116684,2.149171460457807,1.3251963533293858,0.05571965548007022,0.1319075739758693,0.3281690452051951,0.3242988195034404,0.0024161419615203257,0.039065283607859325,0.21055318218619057
5.46988320350647,1.3663381543183708,0.032733127345803456,2.1518122395536587,1.3312316271172109,0.061033685314678114,0.13200319888086548,0.31632454225755896,0.33538295150618247,0.0018272617883397153,0.04225852488099857,0.15966206365696234
5.489966630935669,1.393025278485707,0.034021591454206274,2.154452628999656,1.3374423964113098,0.0678480001616833,0.13203373461212836,0.3048065255451396,0.3459654461700964,0.0012239362331712541,0.046478681485943696,0.21100783024725622
5.509967565536499,1.4064097072527357,0.0346915971870939,2.155774079650703,1.340225888732733,0.07065121533802944,0.1320709224672923,0.29118502281382375,0.35248441779930334,0.000692863194904001,0.04791803127297767,0.07196748935169861
5.529906511306763,1.4467535573967405,0.03694781959901571,2.159737790284871,1.3490146606253246,0.08071100357945037,0.1321231582267277,0.2762708927448428,0.36230556088596994,0.00018613247204751621,0.054226690301980796,0.3154329514501564
5.550036430358887,1.4737881326026023,0.03863513217939851,2.1623802560736016,1.3543946167071887,0.08805143788696054,0.13212167704959843,0.26179783876978413,0.37166068658144724,-0.00033693974609197235,0.058236158291171236,0.20047339945952203
5.569947957992554,1.5009404682907475,0.04045828116545265,2.165023554708444,1.3598262970891952,0.09522238385640894,0.13213205325970975,0.24538836941833503,0.3731185357908346,-0.0007905727654660859,0.062254000197111914,0.2008920952970339
5.589895725250244,1.5418617354922113,0.043488102338854334,2.1689872417794254,1.3675455356877453,0.1066248422196534,0.13210624010352967,0.2325223873766993,0.37591453161577115,-0.0012189188928664822,0.06877891358301413,0.326245669295111
5.609978914260864,1.5692583106942237,0.04569595644429869,2.1716290933269726,1.372070279102193,0.11416908682097622,0.13207742607277617,0.22001070401517855,0.3784701348223334,-0.0016654852945842925,0.0725228521498269,0.18719692834063828
5.629981756210327,1.5830032453298037,0.0468774745067107,2.1729491369894447,1.3745592031076321,0.11863423203681508,0.13203722079330577,0.21091889728098703,0.38548701611027547,-0.002043833837666968,0.0747139595674251,0.10955537087991019
5.649909973144531,1.610536019046918,0.0493277051986711,2.1755894464394117,1.378688661252483,0.12641095274764294,0.1319923981856285,0.20206665375210958,0.392121773865087,-0.0024416318643326845,0.07902408219839652,0.21550613154857068
5.669909954071045,1.6381759075162219,0.05197302571460128,2.1782277631943776,1.3833156824003798,0.13527764729469527,0.13191416168544762,0.19896320902939044,0.39941540064236414,-0.0027716815615130693,0.0836069247054625,0.2291421253532988
5.6899402141571045,1.6658818098089505,0.0547589277163603,2.180865469051603,1.3872643951774841,0.1433355163147579,0.13185525495710398,0.1959176947324259,0.4063045176188137,-0.0031223980422218,0.08757826536168789,0.19856703281126986
5.710036993026733,1.6936698626102573,0.05773891985719403,2.1835008555911033,1.3911442379409344,0.15218569929102949,0.13176447745197348,0.18803907624318114,0.39942044363889107,-0.0034074204778833596,0.09203454134985645,0.22281379940842783
5.729915618896484,1.7354783823457502,0.06250935453284903,2.18745194264194,1.396419161421929,0.16486677868570265,0.13165109430412716,0.18096359193342448,0.3930063122597925,-0.003670355021243665,0.09846109207553688,0.3213275362840218
5.749975919723511,1.7634424995098388,0.06588486789990229,2.190084211804035,1.3999698297808005,0.17266345317645643,0.13157487074057375,0.17414598187173522,0.3866748455714528,-0.00395569663267513,0.10166382780819028,0.16013678663266973
5.769957542419434,1.7634325691302242,0.06590548816394885,2.1900837772571813,1.399508214533008,0.17325770927822162,0.13155620694190848,0.16221296398966661,0.37760399109541615,-0.004184004737169213,0.10150151594059764,-0.008115593379631747
5.789866924285889,1.8195366904065438,0.07322956458206628,2.1953411856951455,1.4058289698118553,0.19062036348154393,0.1313465091297001,0.15998136731272455,0.3687980488890839,-0.004387034811180896,0.1109853065412918,0.47418953003470765
5.809982061386108,1.8476851229844504,0.07711515036835775,2.1979672237317827,1.4090072274903056,0.19790925958711386,0.13125653774885165,0.15786319961324324,0.3601113663579062,-0.004614062213874678,0.11305870975485366,0.1036701606780932
5.8299548625946045,1.8617724578939066,0.07917897103236755,2.199277053071135,1.4101936704118583,0.2033585084722064,0.13113596768430572,0.14922438730723908,0.35282394923967686,-0.0047812468269709295,0.11562083122028222,0.12810607327142787
5.849995851516724,1.8900056162125853,0.08331622393802425,2.201898803777751,1.4130944273496004,0.21034274211067727,0.1310384624545755,0.14090409589899852,0.3456119470642034,-0.0049733953204783255,0.11871312770933784,0.15461482445278119
5.869956970214844,1.9182761581401189,0.08770361324245153,2.204515501202187,1.4153706918041526,0.21996279034003377,0.13086326546989815,0.13371076894078598,0.3382312666712748,-0.005104453719779264,0.12317774471259524,0.22323085016286992
5.889881134033203,1.960785882486905,0.09452151412604315,2.2084375188108454,1.4189900131806101,0.23193868010526042,0.130664252534323,0.12652398889709668,0.3304281437630033,-0.005215983763442996,0.12839154970931466,0.2606902498359709
5.909909725189209,1.9891905224455697,0.09922585800665329,2.2110497518983765,1.4214509597163123,0.23847002107135867,0.13055859595248737,0.11961704648547852,0.322722066284159,-0.005354055061569543,0.13051028747006566,0.10593688803754997
5.929923057556152,2.003397714923691,0.10168538274272991,2.212353531686722,1.4221983740830222,0.24329350044894885,0.13046010866361307,0.11168786687947757,0.31483794194326936,-0.00543955182358113,0.13254642819131845,0.10180703606263997
5.949924468994141,2.0318635063519213,0.1066136995887841,2.214961638882262,1.4243553356181553,0.24951222722676847,0.1303502349709838,0.10405787507297695,0.3070508517421584,-0.005552318940268329,0.13512448593159165,0.12890288701365993
5.9698920249938965,2.046105490815269,0.10918410074655878,2.216263549331108,1.425166351793184,0.25421300764545496,0.13025690750246655,0.10006172109898054,0.2988206422917964,-0.005614517880226929,0.13692733631923693,0.09014251938226359
5.99002480506897,2.074628572862532,0.11432758249639287,2.218867559030179,1.4271291366622225,0.26010814278062067,0.1301437619330044,0.09624680666763866,0.29071325832980716,-0.005704650523049354,0.13931788649288412,0.11952750868235995
6.009984970092773,2.1174781300027234,0.12239210142331094,2.2227668809709127,1.4297366957866346,0.27160706542330365,0.12991936722575034,0.0875244288415379,0.28075622471955286,-0.005737373363374365,0.14435865663097625,0.25203850690460605
6.029956102371216,2.146085025025646,0.127909661269359,2.2253635853001255,1.4312500383661595,0.27811528134028785,0.1297868072480689,0.07964868162892769,0.27041426636854343,-0.005759932558610488,0.1462993442102496,0.0970343789636674
6.050169467926025,2.1890517793389663,0.1364238166222181,2.229253541172178,1.4333877221612448,0.28752485226056956,0.1295839525277883,0.0717604051380212,0.25942873841499375,-0.005768372391835521,0.15023690320658334,0.19687794981668727
6.069942235946655,2.2177333758080406,0.14222547819888254,2.2318440645027153,1.4347466841568626,0.2926054294810763,0.1294682537879748,0.06418816847960229,0.24866592551726427,-0.0058063846397941946,0.15157718623466065,0.0670141514038658
6.089974641799927,2.2464326958951886,0.14819132939396795,2.23443082759073,1.4357937334956132,0.29911490803855567,0.12931669611600138,0.05924646932502191,0.2421241854987042,-0.005795350657740598,0.15428661009194222,0.13547119286407838
6.110059499740601,2.275160101501779,0.15422162065499162,2.2370160016652765,1.4369310930018686,0.3038927038796958,0.12920064749296653,0.054526180319937355,0.23566991846844143,-0.005814495135197524,0.1557229418782029,0.07181658931303403
6.129940509796143,2.303903600594576,0.1603995474683385,2.2395979823093373,1.437798563161844,0.30983365916798716,0.1290644454731556,0.0470481688119651,0.2291561259854131,-0.005786942889581477,0.15809026287710415,0.11836604994506228
6.149919509887695,2.332668497935844,0.16664162305164013,2.242178114127373,1.4386672413261332,0.31435254785122774,0.12894872578649122,0.039869223442242085,0.22275071441960817,-0.005790096699903977,0.15945442790847197,0.06820825156839128
6.169953107833862,2.3470514748850286,0.16981913134572238,2.2434671308645235,1.4388405408394664,0.31715938460613363,0.12888654843075745,0.032898048393675446,0.21694239800310058,-0.005752464656244046,0.16041256599215803,0.04790690418430277
6.189883470535278,2.3902310532307487,0.17944957967613387,2.2473311893939236,1.4397640093634752,0.3241414739784094,0.12871611276580558,0.026968737490773564,0.2142828447152795,-0.005705918542281166,0.1632208421593262,0.14041380835840833
6.210000514984131,2.419031344899155,0.18597508765684168,2.249904371997006,1.4402462598941064,0.32840040808499665,0.12860219818593777,0.021299416400141775,0.21160804683397805,-0.0056907160086717935,0.164319357210569,0.054925752562140495
6.229947566986084,2.4334317623333557,0.18927630961445052,2.251190295512243,1.4402813116436388,0.3306617446018326,0.12855156613199398,0.011209305928836788,0.209094990184604,-0.005636888360518915,0.16505505716083668,0.03678499751338382
6.24992823600769,2.46223897831219,0.19593119515831303,2.253760201461056,1.4404080209960919,0.33481837910357476,0.1284391027950327,0.0015296561510612856,0.20656579006353962,-0.005614665114308981,0.16664385728433162,0.07944000617474689
6.269925117492676,2.491053669911307,0.20266596457259972,2.2563285336293437,1.4405414758364377,0.3388246696097641,0.12834402047092786,-0.007961717115300075,0.20413858739276297,-0.00567129097275832,0.16795781350172279,0.06569781086955828
6.2899041175842285,2.5342762754465467,0.21291259135453885,2.2601769679159487,1.4404842322545677,0.34463019904945236,0.12819195471027173,-0.020725028831271235,0.2014929531485756,-0.005837891378778613,0.170106811585641,0.10744990419591094
6.3099799156188965,2.5630809895924456,0.21984531652298392,2.262739627144457,1.4399463282150233,0.34863343069287084,0.12807333430972898,-0.03298136150011327,0.1988268290632501,-0.0060280327525571295,0.17127743763019687,0.05853130222779335
6.329916715621948,2.577490082872262,0.2233263422428824,2.2640208424834767,1.4398638393769452,0.3501525905082981,0.12803323098746064,-0.04215083365552648,0.19583221605902923,-0.006288400397768255,0.17160575811992107,0.016416024486209935
6.350520372390747,2.606278338227869,0.2303683605273718,2.2665802310682652,1.4389324647048807,0.35403923413823757,0.12790469332788243,-0.05092035295589485,0.19283107926144322,-0.006568642333144762,0.17326523414472517,0.08297380124020481
6.370001316070557,2.6206877269129674,0.23390347349128368,2.2678599793521372,1.4390591430066229,0.35562124952068214,0.12786586888598014,-0.05065761975268772,0.2033866258856184,-0.0069124977952400085,0.17342848488486062,0.00816253700677283
6.389883995056152,2.6782364519705704,0.24825401533930222,2.2729712727559095,1.4376228152220645,0.3628515837932052,0.1276400942657343,-0.051973995428700605,0.2124910175675446,-0.007386910326982708,0.17650033604949256,0.15359255823159668
6.4099695682525635,2.706978430858149,0.2555541303819238,2.2755225650565944,1.436571027696838,0.36718881796057784,0.12748751623949062,-0.05318776967366894,0.2211603586333864,-0.007872773976164454,0.1775688967534239,0.05342803519656769
6.429900407791138,2.7213402194081464,0.2591983532283472,2.2767984807421566,1.4359427644795517,0.3683459566167565,0.12744529166661062,-0.05727543069711617,0.2303138815623566,-0.00840668875286137,0.17780426244798386,0.011768284727997624
6.449921369552612,2.7500473557599214,0.26661192299332764,2.2793456692098415,1.4347578214765522,0.37304004240749206,0.12727174661265378,-0.061190231536152856,0.23902073608802848,-0.008949230765814102,0.17986188480094878,0.10288111764824581
6.469939947128296,2.764381474620075,0.27029678703365917,2.280619932276672,1.433657082855169,0.3738261984410037,0.12723447848544098,-0.08341239383343245,0.24487776774862874,-0.00953539796291084,0.17964943322329185,-0.010622578882846234
6.489887475967407,2.821667128523951,0.285345396107066,2.2857054741543643,1.4303563768277927,0.38120837154585296,0.12694062414710214,-0.10393226742241575,0.25245885175918775,-0.010234372774096289,0.18304445743875286,0.16975121077305033
6.509897470474243,2.850252141759265,0.2930205300955563,2.2882421930905372,1.4280792191191234,0.38632826004707527,0.12672893471710336,-0.12365069613185026,0.25942880773975535,-0.010934795484187469,0.18446898045823046,0.07122615097387985
6.529944658279419,2.8645456690074216,0.2968407481557083,2.289510926369083,1.4272793969393638,0.3873803582944076,0.12666967072600252,-0.1394960845168889,0.26456360536509294,-0.01166488306065445,0.18455473796265087,0.004287875221020698
6.549998044967651,2.8930623353098697,0.3046415840703474,2.292041938165739,1.42433667435981,0.392718599568087,0.12642907747348356,-0.154663899144536,0.269173640765272,-0.012394320186300972,0.1870843444955823,0.12648032664657194
6.5699872970581055,2.921591869513777,0.31246779394578433,2.2945718571704425,1.4229421650204688,0.3961479851368408,0.12627054936460066,-0.1746084792516069,0.2771785594851302,-0.013184264025655812,0.18786637663465777,0.03910160695377307
6.589894533157349,2.964252887297185,0.3244286434871678,2.2983565834350514,1.4190475692044673,0.4031207013298417,0.12594048913350372,-0.18839208936040777,0.28098844531693945,-0.014032690602067343,0.1909625814715974,0.154810241846981
6.609916925430298,2.9925952741758994,0.3325474851134516,2.3008725304458744,1.4151473576473887,0.4087745584038064,0.12565140576877035,-0.20152052635747417,0.2843176826211845,-0.014874543186306613,0.19285120959453472,0.09443140614686651
6.629939556121826,3.006776862196994,0.33660750244054044,2.3021305558902543,1.4141947308138116,0.4104717957024968,0.1255590539848656,-0.20803174830369905,0.28860440177554664,-0.01573094073201455,0.19308298905661614,0.01158897310407081
6.651002645492554,3.0491449958235393,0.34901416601017143,2.3058929259676115,1.4089010587039135,0.4180956007202263,0.1251556006019567,-0.21303675370082698,0.2906629329944926,-0.016637009436592118,0.19677759199348666,0.18473014684352584
6.669966459274292,3.077280096038355,0.3574343256603485,2.3083926506982246,1.4045936142948834,0.4239257498645291,0.12481388724639969,-0.21764138369699712,0.2922787067540158,-0.01753257284959081,0.19857448492876228,0.08984464676378145
6.689920902252197,3.0913324588589024,0.36165987922342047,2.3096420561295288,1.4027784136103767,0.42601317311990444,0.12469095487782982,-0.22982439311760394,0.28639199467064663,-0.018434761539415808,0.19912700051647825,0.027625779385798133
6.710025787353516,3.1193412814285026,0.37023702168619954,2.3121321287110757,1.3980653215523509,0.43168098857128906,0.1243133347996491,-0.24138105980762553,0.28036666157920515,-0.01932530454864259,0.201833844178279,0.13534218309003698
6.729942083358765,3.147275235994393,0.3789076800329975,2.3146182867970126,1.3936883960847013,0.436818523231341,0.12401198146382403,-0.251277579787735,0.2710602723614135,-0.020249607990637287,0.2036546360261,0.0910395923910512
6.749878406524658,3.188988809803927,0.39214489521936163,2.3183315919310243,1.3865476620854342,0.44520406947143265,0.12345431792185227,-0.25781979377977016,0.26060552738650117,-0.021208739650269478,0.20741965049839273,0.1882507236146358
6.770001411437988,3.216667786454948,0.40110040297520094,2.320796373388733,1.3813297606065529,0.4503120067201247,0.12302068334110938,-0.2638926154968358,0.2501957155102375,-0.022152092825366752,0.20891243134079662,0.07463904212019479
6.789930820465088,3.244254557381902,0.4101974219247104,2.323254310205868,1.3762328336244842,0.45634814597692164,0.1226166330796054,-0.2775198216586254,0.24457420084465448,-0.023115889334206115,0.211588584744554,0.13380767018786877
6.8099470138549805,3.2717228378880594,0.41937291966895407,2.3257019563065797,1.3705522073605123,0.4611825410784614,0.12214482230730693,-0.29042286103574305,0.23884802139348257,-0.024062295866936572,0.21334395800660788,0.08776866310269416
6.829928398132324,3.2854178689547715,0.4240338168787774,2.326923076210312,1.367669462482966,0.46463114191330124,0.12192018023993895,-0.3008626092385389,0.2397311195617588,-0.02499935160530952,0.21464419372702315,0.0650117860207633
6.850399732589722,3.312710420881405,0.43337442622295236,2.329356418366709,1.3615530061965415,0.4694314992019448,0.12141097132703134,-0.31067993490265094,0.24024321714065744,-0.025918574856842604,0.2169713118657306,0.11635590693537257
6.870018482208252,3.326322843660497,0.43811551033781604,2.3305705930700107,1.3586244857908867,0.4728671430289611,0.12118220098081747,-0.3307792963284911,0.24832487451664076,-0.026828400432854314,0.2179884899011597,0.05085890177145558
6.889905214309692,3.3804389667642196,0.45725270817730956,2.3353992204709098,1.3461618427441797,0.4834024177593947,0.12016901952029171,-0.3453818203738162,0.25676272886358653,-0.027780544513643642,0.22351491081518127,0.27632104570107785
6.910009145736694,3.4072921950024666,0.4669726372090134,2.337796982307883,1.3391150511166046,0.488616322949151,0.11960405908574304,-0.35916098306275385,0.26451414207826784,-0.02871207408519013,0.22466919352654058,0.05771413556796556
6.929977655410767,3.4206836765100035,0.4718711160280498,2.3389927856886334,1.3358290234453027,0.4912159702517069,0.11934248983056389,-0.38474633941096187,0.26475000654484737,-0.02962824863693041,0.2258387371996471,0.058477183655325504
6.949953079223633,3.447321662477838,0.48174838190223096,2.341373649795262,1.327888312373562,0.4965101221722092,0.11874093605627317,-0.409124878120255,0.2646016002616833,-0.030523683757577403,0.22872358653510982,0.1442424667731368
6.969983339309692,3.460616271547584,0.4867137741337223,2.3425615396060113,1.324693200194189,0.49872746892803405,0.1184856961177179,-0.4268146143256156,0.25641830743600014,-0.031404942850225874,0.22902040112249455,0.014840729369236527
6.989965438842773,3.5120425341866364,0.5063582000607328,2.3471626173309943,1.3101521427643967,0.5086926495233653,0.11735293449765831,-0.43562868146075345,0.2486412662703257,-0.03231521024396891,0.23492714671727866,0.2953372797392051
7.009962797164917,3.5381578973857795,0.5165812583546452,2.34950315343454,1.3013570385301634,0.5135869587341015,0.11669771756097672,-0.4437704127441831,0.24077496321707287,-0.033202701910636,0.23605743683928537,0.056514506100335815
7.029961585998535,3.5511881482817587,0.521743406358341,2.3506700784730867,1.2979481700968065,0.5164696676109857,0.11640179760887877,-0.4481597047373205,0.24679141072885813,-0.03407086444272331,0.23740089197970304,0.06717275702088354
7.049972772598267,3.5770572171620096,0.5321225278966353,2.3529912435090288,1.2889460856990627,0.521460465502029,0.1157118876381819,-0.4519495116446179,0.2521853384830695,-0.03491637155618569,0.24019300988158854,0.13960589509427468
7.069979429244995,3.6027770435084574,0.5426299479553937,2.3553010037527606,1.2805977662383543,0.5272047796686845,0.11506819665896754,-0.4514046593607523,0.2608385970630771,-0.035758421664227096,0.24281544477762607,0.13112174480187644
7.090029954910278,3.640986174406656,0.5585603370602796,2.3587383557182964,1.2668747322551466,0.5350284781364493,0.11402782110418436,-0.44856255647751764,0.27616561829481007,-0.03660030733696217,0.24713161397335792,0.2158084597865928
7.10993504524231,3.6662341628708504,0.5693171106556231,2.3610115371530567,1.257934709253793,0.5406965848649031,0.11328759598204757,-0.44538411522366067,0.2904768825659371,-0.037418227676067756,0.24917059770148597,0.1019491864064026
7.129917144775391,3.6787673667118255,0.5747154733247353,2.3621434460338016,1.2527331892963902,0.5428975001564088,0.11293137481225295,-0.4501119926748963,0.2889596611169693,-0.03821275961029431,0.25021887568462287,0.05241389915684458
7.149905681610107,3.7037317204614313,0.5856310952854383,2.364394379191117,1.2436882596016958,0.5486583860537316,0.11215937117015717,-0.4542899340712058,0.28706679839931953,-0.03898368779989601,0.2535038604302442,0.16424923728106666
7.169935703277588,3.7284662263760806,0.5966047973375803,2.3666317925686866,1.2334200759771312,0.553005574583963,0.11142326735745382,-0.4529206455120683,0.28285127002861093,-0.03974426837828975,0.2557331813252812,0.11146604475185118
7.189873456954956,3.7652351945780542,0.6133075827293777,2.3699575654078258,1.2189663702097395,0.5611286500510169,0.11025092354420278,-0.4538405134720079,0.2845367510631788,-0.04049704140362172,0.2605559216384026,0.2411370156560677
7.210015058517456,3.789523713370205,0.6245871495795042,2.37215443550153,1.20988382781808,0.5668319322847352,0.10943365754354983,-0.4543449646961023,0.2857060735227773,-0.04122552994958462,0.2624524803116173,0.09482793366073494
7.229939222335815,3.801568352853589,0.6302692642132811,2.3732467897682805,1.2044706453431047,0.5697698762395275,0.10901592151178938,-0.45018109482037033,0.29573321121636365,-0.041927812873091164,0.26394881503393064,0.07481673611566819
7.249944448471069,3.8255680218444614,0.6417244336227715,2.3754186770053285,1.1955111119452142,0.5757776117827732,0.10817054036312736,-0.44572371158608265,0.30489753143859727,-0.04260636557900869,0.2673291376915867,0.16901613288280437
7.269949436187744,3.837464697358981,0.6474931094993835,2.376498471979244,1.1900457769462995,0.5788108896869559,0.10774449127189155,-0.44098274256336395,0.3207201611438256,-0.04325989590847607,0.26817761890169267,0.042424060505297234
7.289884805679321,3.8846413556705253,0.6708539484343531,2.380774354932351,1.170642682001196,0.5904235589924456,0.10602465250317057,-0.4339904333657668,0.3256173635659017,-0.043906863154637266,0.27584941878323477,0.3835899940771048
7.309875249862671,3.9079678857390188,0.6827278315946159,2.382886024671092,1.162034188573759,0.5969785547070843,0.105140244202063,-0.4268313655157678,0.32975685138687955,-0.04453001771219353,0.2768805793246383,0.05155802707017543
7.329910039901733,3.919518096040697,0.6886778284105542,2.383934711283715,1.156525548981304,0.5992528126350755,0.1046733563256993,-0.40794035110430027,0.3299987248080979,-0.045126049615039854,0.2784797569038071,0.07995887895844156
7.349876165390015,3.942568265210572,0.7007288667204722,2.38601911462347,1.1485534626614289,0.6058495751029078,0.1037650680111399,-0.38931193150222476,0.3295659170541303,-0.04569894507116774,0.2817494522544415,0.1634847675317186
7.36995005607605,3.9653595279522533,0.7128716272397221,2.3880846711664456,1.1381677151518603,0.6116346088429698,0.10283017338653533,-0.38616975025368655,0.34418302534480544,-0.04624975117498895,0.28472913321237625,0.14898404789673858
7.38992977142334,3.999256230684978,0.731356284509898,2.3911477332685305,1.1246006645710347,0.62100282661748,0.10140801572897251,-0.3712726883048795,0.29502292290836496,-0.046779537287889875,0.28977265625654614,0.2521761522084942
7.409915924072266,4.021674974755215,0.7438321298587441,2.3931665034929863,1.1173228783464684,0.6264219402524086,0.10046731641417297,-0.3565319050838915,0.24709230926874817,-0.047286631935377146,0.29099223687882647,0.06097903111401681
7.429940938949585,4.032764008990479,0.7501245319285693,2.3941672108240355,1.1119644244865183,0.6290446559151395,0.09994191627241247,-0.3457561789455245,0.1969903632182574,-0.047765901107871774,0.2926279690615843,0.08178660913789049
7.449946165084839,4.054934863525206,0.762741549600815,2.3961564651152782,1.1051568743898779,0.6324945390989797,0.09898198833380628,-0.3350025681845641,0.14821846754693443,-0.0482232603826222,0.29445624450799013,0.09141377232029235
7.46999454498291,4.065897349244187,0.7691917507760686,2.397141228943385,1.099840481775736,0.636968210812963,0.09841696021788207,-0.3260085543143396,0.09273256069646532,-0.04865207216901002,0.2964693938486551,0.1006574670332494
7.489876985549927,4.109526786349681,0.7950541773638744,2.4010330777821958,1.0843531186949231,0.6479711241502849,0.09631535095242172,-0.31799195305124606,0.03875889350091575,-0.0490496886025467,0.3026500052974992,0.3090305724422038
7.509984493255615,4.131150789201811,0.8080178314387674,2.4029495493961446,1.0780741829205565,0.648219567140953,0.09533055430819692,-0.30988706306074126,-0.01365624738550932,-0.04942653265540526,0.30096893047132545,-0.08405374130868726
7.529975891113281,4.141868260401184,0.8146904096288606,2.4038956520159886,1.0736885925291189,0.6530764194391611,0.0946976978000651,-0.30402779555411374,-0.06639610280761492,-0.049772739554280236,0.3045596446908303,0.17953571097524268
7.549902677536011,4.173901073741323,0.8344786713988998,2.4067102832948772,1.063506041412409,0.6570234967969846,0.09309249976288848,-0.2938914059932784,-0.12468526177130013,-0.05008911710442447,0.3062438149268698,0.0842085118019753
7.56996488571167,4.195113094057748,0.8475904105967363,2.4085620953459497,1.0577299115149033,0.653962266833839,0.09208771538980073,-0.2837150452876824,-0.18113244968788023,-0.050386107108935194,0.30496426527072806,-0.06397748280708715
7.590104579925537,4.216211629639077,0.8606297575296051,2.410393753593165,1.052157696204171,0.6497903417909204,0.09107718327586006,-0.27350019409169185,-0.23575819038682444,-0.05066392751409862,0.304630522390708,-0.01668714400100413
7.61004900932312,4.21616667740718,0.8609393444988132,2.410389871947561,1.0511733891223838,0.6567757754608203,0.09098154416906393,-0.26632208355774845,-0.285691375793051,-0.050917662780331635,0.3078796483114825,0.16245629603872658
7.629937171936035,4.2475463998872565,0.8807759060379563,2.4130955449279723,1.0422415247011203,0.6552416177777035,0.0894299265480348,-0.25941875869135594,-0.33294200700510673,-0.05114630372026045,0.3072564974128036,-0.03115754493394629
7.650076866149902,4.278672781664281,0.9005056766006986,2.4157561242256986,1.033874355974407,0.6511015986401888,0.08791776574895765,-0.249267147446865,-0.38540137138020075,-0.05135221497568949,0.30697680304906827,-0.013984718186765832
7.669978857040405,4.299301094053327,0.9134472222254846,2.4175041962525383,1.0289908492375335,0.6428841708201322,0.08688880928591028,-0.2390772814388707,-0.4360396231186597,-0.05154051315878178,0.3041828641700315,-0.13969694395183918
7.689874887466431,4.319810366523063,0.9264965025273415,2.419235953952184,1.0237030284879518,0.6406671781059411,0.08597110219567837,-0.23300226841006252,-0.48399566916990766,-0.05171370209242665,0.3052481942215364,0.053266502575244346
7.710042715072632,4.340238240447609,0.9392099372645982,2.4209450225706868,1.019105199698238,0.6305222580154605,0.08493523965813604,-0.2267516023837737,-0.5302072875803793,-0.05186970448969713,0.3009726408551927,-0.21377766831718326
7.729947805404663,4.35040894258957,0.9456472631432956,2.4217965796895298,1.0166543203165566,0.6292704415220596,0.0845556775865451,-0.22060084574248415,-0.576706893037336,-0.05201785167250485,0.3027433926158922,0.08853758803497591
7.749934673309326,4.370698327315365,0.9581143196072585,2.423477280638979,1.0123052159019266,0.6172861288717548,0.08351397974113375,-0.21428180544839778,-0.6214300431969764,-0.052149140281865916,0.29727521501832666,-0.27340887987827855
7.769938945770264,4.390894562322348,0.9705822221989383,2.4251469955824887,1.0079115349523278,0.6105694451703221,0.08272173372028575,-0.20932122354544472,-0.6642195177994706,-0.052273547099582415,0.29728723980651317,0.0006012394093257711
7.7899086475372314,4.421040825813376,0.9887322772912766,2.4276129681610126,1.0017878884004199,0.5940118467644379,0.08137929723372661,-0.2030413026509164,-0.7031232625901411,-0.052385182218739085,0.2908485938307446,-0.3219322987884299
7.809916734695435,4.441036399294719,1.0004693773685895,2.4292300704595164,0.9977907460229857,0.5795738978524317,0.08033061591037458,-0.19665544995629897,-0.7404025257320288,-0.052480197597391975,0.2873997809402318,-0.1724406445256399
7.82993483543396,4.4510144708459665,1.0063147557615224,2.4300392848635974,0.9961642472985015,0.5742315501031736,0.08004923535530684,-0.19150974058811052,-0.778871253191041,-0.05257429371028401,0.28665157606190306,-0.03741024391643588
7.849804639816284,4.47089980364453,1.0176411324762866,2.4316297492636423,0.9923866340687035,0.5582835189922657,0.07899694588186676,-0.18622932629583777,-0.8156523143231209,-0.05265192739294105,0.27995555896715807,-0.3348008547372494
7.869889736175537,4.5006075800503265,1.0341909358464991,2.433995153818955,0.9872735657526691,0.5371044941936793,0.07784273343511014,-0.1857278153745608,-0.8447579356716077,-0.0527236390328492,0.2733054387618252,-0.33250601026664217
7.88986873626709,4.520315953460313,1.0447622038408635,2.435541459797442,0.9835663933332524,0.5199299498434184,0.07678767983435655,-0.1849424567886753,-0.8724648490081334,-0.05277901634984274,0.2680352612334369,-0.263508876419416
7.909883260726929,4.530160796332943,1.0499443744728412,2.4363153049755883,0.9822567589261714,0.5116906104098953,0.07650392473536506,-0.18568604428294966,-0.8945892233758688,-0.05283340280326689,0.2664694734668247,-0.07828938833061017
7.929940700531006,4.549768761827605,1.0599978527777023,2.4378348139724126,0.9785384495128522,0.49358739182427763,0.07544684745653246,-0.18608843292883276,-0.9155379502187087,-0.052871653480595054,0.25844508209982386,-0.4012195683500419
7.949980735778809,4.569345258799096,1.0697013254653787,2.4393450144086133,0.97592212632404,0.4753815609675091,0.07467877022653364,-0.18642659097420447,-0.9317683833424775,-0.052902379325871024,0.25263617524463333,-0.2904453427595266
7.970084190368652,4.588826409909331,1.0790215705518569,2.4408280080811173,0.9721929517000651,0.4565921450931031,0.07362054732170692,-0.18643656982754608,-0.9470093750800395,-0.05291729350755552,0.24547029381656582,-0.35829407140337555
7.990037202835083,4.608288091022008,1.0879190204427855,2.4422985932059476,0.9698544968145482,0.4363003023082859,0.07277551821028108,-0.18623605208072938,-0.960097830508372,-0.05291945070698744,0.23764305925882834,-0.3913617278868742
8.009880542755127,4.627669735931753,1.096420268734808,2.4437458694450616,0.9669034535869897,0.4158978160007271,0.07179442278127245,-0.18010431860555215,-0.9720718929701313,-0.05290559920193977,0.22987969812441422,-0.38816805672070576
8.030107498168945,4.646972198634871,1.104543055585532,2.4451711784546686,0.963363635611472,0.3963438288854004,0.07073657428164118,-0.1738586915780798,-0.9831841403912365,-0.05287677197883529,0.22210958490208288,-0.38850566111656715
8.049993515014648,4.666251811955091,1.1121618148798187,2.44657910773147,0.9610296235456522,0.37373069648328094,0.06976686633101895,-0.1722729980412157,-0.9951256322582664,-0.05282727085389117,0.21213489593694446,-0.49873444825692115
8.069956541061401,4.68543806827197,1.1194366531859714,2.4479638836146824,0.9576021408601335,0.35371636362291087,0.06871093428085642,-0.1704332465220741,-1.0061569900415694,-0.05276358699884032,0.2041392328988385,-0.39978315190529745
8.08993935585022,4.704588269477845,1.1261769869150626,2.4493279918977695,0.9550542701170627,0.33013414436792426,0.06766074979676737,-0.16297340014985945,-1.020176887160246,-0.05267446242138185,0.19292638824661834,-0.5606422326110083
8.109947204589844,4.7236668208236985,1.1325244636518035,2.450670061621928,0.9521463364737159,0.30799550093702854,0.06658691373578296,-0.16010106327668572,-1.024188768559619,-0.05256487836573375,0.18331371648297168,-0.48063358818233315
8.13004207611084,4.742677929948013,1.1384793006419174,2.4519912948630593,0.9489748899702395,0.2874769664723738,0.06553681800381565,-0.1570069196239094,-1.0275584022944673,-0.05244259353324037,0.17354437815391321,-0.48846691645292317
8.150012493133545,4.7616466962259505,1.1438809599468376,2.453288157640509,0.9462968042307822,0.2632887364062372,0.06440065667221685,-0.16310835785477537,-1.031866274159212,-0.052290344860448944,0.1610064150542052,-0.6268981549854002
8.169976949691772,4.780539630435003,1.148940108503638,2.4545657234349054,0.9429780458444764,0.24261404016488558,0.06335646884948097,-0.1686797247007033,-1.0354901700417107,-0.052126523170653874,0.15108295480673029,-0.4961730123737462
8.189914226531982,4.799396070573396,1.1534277333901521,2.455816370080749,0.9403543104911098,0.2179296388532469,0.06215760419723542,-0.17678599739378373,-1.0376745591452767,-0.05192954866015922,0.13711363230665752,-0.6984661250036384
8.209858894348145,4.818187064100306,1.1575176973461536,2.457046200137616,0.9374581775033417,0.19509242133614477,0.06102194433925304,-0.1782756588268838,-1.0435713691805657,-0.05171025651621951,0.12503307134608965,-0.6040280480283933
8.229929208755493,4.836900493229228,1.1612104760300919,2.458256312078308,0.9338811020124401,0.17416829625111022,0.059990013013555096,-0.17936576522093553,-1.0487167871036585,-0.051481274014582114,0.11319908134491996,-0.5916995000584846
8.250005960464478,4.85560032684631,1.164329393964707,2.4594366167016863,0.9317024642206622,0.14933994352378072,0.058732860703821374,-0.18331685825820876,-1.0518391095276263,-0.0512168511263345,0.09738516162262778,-0.790695986114609
8.270028591156006,4.883503417464063,1.1682461876920536,2.4611695131366518,0.927177008981351,0.11524397419665099,0.05702452987084935,-0.1837312859211686,-1.049517319911373,-0.05091346708359293,0.07465083322646304,-1.136716419808237
8.289884328842163,4.902010202061277,1.1703413420511322,2.462299841628375,0.9235012870644947,0.09428076783046709,0.056009354662384554,-0.1837804774584348,-1.0467256061692602,-0.0506028609787427,0.06251945681597837,-0.6065688205242337
8.309862613677979,4.911265238806207,1.1711450802395902,2.4628486109493455,0.9226350748032313,0.08133100044565925,0.05524403752198141,-0.1650053011788964,-1.047599186762577,-0.050272463214818736,0.05418405063684295,-0.4167703089567709
8.329958200454712,4.92968617429705,1.1725621611352364,2.4639434595500895,0.9195199513542253,0.060376769335813735,0.054241944917602244,-0.14656212957750017,-1.0476953149182913,-0.049935755662126075,0.03780658388493441,-0.8188733375954271
8.349945783615112,4.948053699858398,1.1734296561383264,2.465003749731988,0.9166624615776094,0.036234275340400746,0.05288040779359982,-0.13956932796329458,-1.0415262347311562,-0.049559431987127325,0.019300203419565953,-0.9253190232684227
8.369907140731812,4.9754651068058715,1.173966764825516,2.4665575550124785,0.9117510680146648,0.0027493925664026763,0.05110351437379258,-0.137105104841074,-1.0316771564031237,-0.0491399459176326,-0.008785189331265375,-1.4042696375415664
8.389923334121704,4.993672885370124,1.1738160841271517,2.4675698254514424,0.9090359300384104,-0.01778394900471988,0.050124939429865074,-0.13436268881924165,-1.0216232073111662,-0.04871697523515247,-0.025720692569954462,-0.8467751619344543
8.409943103790283,5.0027325751625265,1.1735076419158057,2.4680559319154938,0.9069761199443754,-0.03011290674557609,0.04926556777960056,-0.140600281367508,-1.0027452827825851,-0.04827299925378138,-0.03668989292822333,-0.5484600179134436
8.42997670173645,5.020843589398209,1.1727060871505295,2.4690316183968264,0.9041063570569292,-0.04998005036081163,0.048304568716162996,-0.14628437490896354,-0.9839894631190121,-0.04782649180144867,-0.05648337597080255,-0.9896741521289609
8.44989013671875,5.038883933464528,1.1713635284506076,2.469968635689553,0.9008321126934312,-0.07319099110081925,0.04687564932030593,-0.1616355864518915,-0.9622798284106887,-0.04733885232822846,-0.08084277221066882,-1.2179698119933136
8.470000982284546,5.056867268227922,1.1697086886295667,2.470896713465081,0.8974530573298245,-0.09222138135860268,0.04593375702120918,-0.17612766148617975,-0.9407969223906102,-0.04685021675532113,-0.10201680771101218,-1.058701775017168
8.489969491958618,5.074817296605209,1.1675054055968084,2.471787810553127,0.8947043776204205,-0.11516997653654952,0.04454617297251604,-0.20485871504776076,-0.919970541217517,-0.04632422538372918,-0.12523231484596709,-1.1607753567477452
8.509922981262207,5.092699777891391,1.1649515232319783,2.472663012185699,0.8913818967431275,-0.13558838869220421,0.04341054221403202,-0.23425889716382287,-0.8945890986819892,-0.0457817748608578,-0.14393773371347596,-0.9352709433754436
8.52993631362915,5.110478674832943,1.1620625135182492,2.473522102785761,0.8864145085591439,-0.1532290580561615,0.042500322434875545,-0.26224584567596554,-0.8695316787793218,-0.045240382687591583,-0.15944003341604063,-0.7751149851282335
8.549942016601562,5.128279222252546,1.1586409587111204,2.47434729450909,0.8838138676857928,-0.17501270944944922,0.0412165258292409,-0.3321828008870324,-0.846391195553664,-0.044669448744206676,-0.17808155477726695,-0.932076068061316
8.570077180862427,5.145884535021007,1.154972964379327,2.4751627290874216,0.8764932339363128,-0.19170989681467665,0.040328827720793645,-0.3994358941409167,-0.8233431638556665,-0.04410073410430672,-0.1913394433294684,-0.6628944276100723
8.589972734451294,5.163556766619149,1.1507941645804214,2.475947545002974,0.8739654419101481,-0.2123630222850495,0.039327607754779094,-0.44881949773852947,-0.7886456602459235,-0.01899339019611694,-0.20760885183893407,-0.8134704254732839
8.609879493713379,5.18106600558339,1.1463240686851786,2.476719162936507,0.868754627054838,-0.22998547706678252,0.03869518592532234,-0.4800445298865225,-0.7465043329322704,-6.374790371125277e-05,-0.22027730938175116,-0.6334228771408545
8.629993200302124,5.198343074117125,1.14157782337224,2.477494279287109,0.8588525733461996,-0.2445015344802037,0.038877112038323856,-0.5099406865737144,-0.7052482728445523,0.018135257337046223,-0.2317541749782932,-0.573843279827102
8.649999141693115,5.207117696850835,1.1389673403469807,2.477848407251162,0.8593310421149949,-0.25505065672788146,0.03819672329374047,-0.5574723048082554,-0.6784691062477025,0.03573631441553095,-0.23757619295417687,-0.2911008987941832
8.669851303100586,5.24135545001698,1.1279826668999893,2.4793337143421894,0.844246878180947,-0.2876745657113799,0.03803036713380921,-0.5996072633958881,-0.63284414304801,0.050062462037479986,-0.26611009038384825,-1.4266948714835692
8.689980745315552,5.258117748306483,1.122105594912773,2.4801052601284588,0.8318485690674575,-0.2998841122531172,0.03917002654263155,-0.6399221421689658,-0.588287743624782,0.06380708172023576,-0.2710305384746645,-0.24602240454081326
8.709907531738281,5.266555034911282,1.118950969767585,2.480468113033673,0.8296074806379541,-0.3089852381395883,0.039007150602798274,-0.6494473769124297,-0.5450562036556267,0.07644380789592664,-0.27705599013628346,-0.30127258308094707
8.729929685592651,5.283016700666732,1.1126650833134655,2.4812643590580277,0.8165300479812538,-0.3194628009307365,0.04065769736198007,-0.6581616367494866,-0.5028741298513538,0.08851757306870214,-0.28696092022801833,-0.4952465045867438
8.749903202056885,5.299424915300917,1.105934879776071,2.482047921793559,0.808196629409449,-0.33522365949036653,0.04139104900635884,-0.6787963840930679,-0.46660756401620357,0.1000498922522949,-0.2980415413921884,-0.554031058208504
8.770015239715576,5.31545177070406,1.0991394596525914,2.4828964950707,0.7944239710267272,-0.3442003398867966,0.04350295568685584,-0.6982785932716112,-0.43120353310357085,0.11105308542592189,-0.30518497560379654,-0.3571717105804062
8.789935111999512,5.3226502685065515,1.0958844057368282,2.4832726071109597,0.7899828091423509,-0.3516761705202622,0.04388826368581543,-0.7356137271689062,-0.3853453482301584,0.1030253122356426,-0.30975041119218893,-0.22827177941961985
8.80987548828125,5.3460989792589295,1.0850042975789642,2.4846258492633404,0.7701573518511191,-0.367277643819333,0.046701198851283904,-0.7396691836809413,-0.3379592414478563,0.09519515096166815,-0.32577016757078336,-0.8009878189297215
8.829959869384766,5.361353951835981,1.0775942494408504,2.4855784005316,0.7553283667038411,-0.3735733761113633,0.04852851122770754,-0.7431310606392758,-0.29182086102029065,0.08757009103607198,-0.3296663488575158,-0.1948090643366207
8.849928140640259,5.36892262935353,1.0737107686569334,2.4860806104989357,0.7494517167421247,-0.38000328295163227,0.04971853472368846,-0.726499195462573,-0.2632131376492901,0.08030850335282173,-0.3348880877578839,-0.26108694501840723
8.869961261749268,5.398315859015661,1.058088905349966,2.4881728990168512,0.7202977628427472,-0.39544920064255373,0.053856015759793444,-0.699035588749875,-0.24655925932040867,0.07309739166700939,-0.3541770556666126,-0.9644483954364347
8.889943361282349,5.412583816085378,1.0501317104913477,2.489264167858811,0.706588025982372,-0.4002153889496923,0.05524748304765123,-0.6720109752281723,-0.2300903722513069,0.0660817404496884,-0.3555569968704635,-0.06899706019254381
8.9099600315094,5.4195462970321735,1.0460503091497917,2.4898403754050906,0.6980402463730826,-0.4042550934256926,0.056413653960405485,-0.6379534122640489,-0.2209842047046572,0.0593974439669446,-0.36089752978746903,-0.2670266458502768
8.929972171783447,5.433381746997269,1.037921622060654,2.4909800916129083,0.6856159593814373,-0.40858296009641504,0.057536302219479876,-0.6045905315936262,-0.2117876351568727,0.052898030296699844,-0.3664990792162155,-0.2800774714373233
8.949844360351562,5.440057364976489,1.0337987569996465,2.4915810856558975,0.6753934941168132,-0.41141245278135585,0.0586660659332644,-0.5810098497110249,-0.2208882747490605,0.04670313655459631,-0.3704394508845934,-0.19701858341889533
8.970004796981812,5.453450593074608,1.025525753702668,2.492763343377075,0.6640071277608082,-0.4159162079410078,0.05953964020175386,-0.5576662141051133,-0.22938771720458453,0.04068331011389964,-0.37636146007536686,-0.2961004595386729
8.990020513534546,5.466304585903766,1.0172118436168043,2.4940026326965166,0.645539244122582,-0.4191535533225745,0.06130648817181632,-0.487133977505795,-0.2486026891428057,0.03488112855362438,-0.38403712560133796,-0.3837832762985549
9.00989031791687,5.48521808745514,1.004625652131104,2.495881811721751,0.6247755942256638,-0.4238458167718439,0.06299472032404299,-0.41384009292197693,-0.2726587508522112,0.029214867810858892,-0.3929084457912544,-0.4435660094958216
9.029926300048828,5.497635620967174,0.9960926706181928,2.4971471796856264,0.6172156382463747,-0.42952784246127884,0.06352374331630191,-0.3424753819168459,-0.2953114363052223,0.023715013137867447,-0.39625090306612076,-0.16712286374331864
9.049886226654053,5.503527250594729,0.9919245609511427,2.497802597082016,0.6067737766870462,-0.42856535943919655,0.06424420769647193,-0.27514655040566344,-0.32040515770306843,0.018490623670014448,-0.39901054059740737,-0.13798187656433036
9.069882154464722,5.527040868320552,0.9748227457056761,2.500412239726871,0.5829829197616748,-0.43403719408332947,0.06553670525148314,-0.20657141726043265,-0.3353152766968386,0.013373782846348626,-0.4122949352581835,-0.6642197330388067
9.089959859848022,5.538663691024096,0.966073998968952,2.501725315299726,0.5795217377599119,-0.44088357276340623,0.06575431735357719,-0.1398549439859774,-0.3491434687060908,0.008413349579364439,-0.41270048875648735,-0.02027767491519228
9.109919548034668,5.544132642791644,0.9618402518846312,2.5023906352190157,0.5695718220094931,-0.4390519284882171,0.06599526638712484,-0.0787274046905268,-0.3680005891394609,0.003729760718681069,-0.415963154927371,-0.1631333085441833
9.13005781173706,5.555512326292692,0.952984419281382,2.50371098162704,0.5685947859285372,-0.4465899815966081,0.06602425284333842,-0.019249771402726722,-0.3855957957096526,-0.0008067385633058669,-0.419484136146302,-0.17604906094654815
9.149948835372925,5.560850130368177,0.9486945133173184,2.504380273234042,0.5590352699911454,-0.44504994454248975,0.06623758433289106,0.033112552512067656,-0.40412719147630677,-0.005088448229797034,-0.42172425725481943,-0.11200605542587283
9.169864892959595,5.582728751408456,0.9308680266204357,2.50704433073536,0.5484104831858407,-0.4539759362509024,0.06645519109550599,0.08466989261894352,-0.42127386538264744,-0.009245570827571329,-0.4311713430620463,-0.47235429036134313
9.190072774887085,5.59371726292367,0.9217031716971058,2.5083713151438567,0.5506079137294748,-0.4625626068620323,0.06622984810369871,0.13484374343019417,-0.43718937384044787,-0.013266092102964139,-0.4309788661793461,0.009623844135009385
9.210063219070435,5.598991761428237,0.9172262373438892,2.5090425409723247,0.5456500757911846,-0.462259074445306,0.06633767088293233,0.17993927532643234,-0.4565574086430418,-0.017053207579887462,-0.43309219225327045,-0.10566630369621688
9.229964971542358,5.609807164117871,0.9079874158300856,2.5103734495492915,0.5451619644757102,-0.46828538544962894,0.06622192748428848,0.22343824352651295,-0.475109606515469,-0.02067800867538432,-0.4355980821439762,-0.12529449453528851
9.249981164932251,5.620757932081775,0.8985255159611699,2.5116935171097183,0.5500559068592208,-0.47796201205111977,0.06577316293799819,0.26576092199809837,-0.49233308642573465,-0.024177719112703694,-0.4374290886306125,-0.09155032433181276
9.269932270050049,5.6315020520777095,0.8891167091315146,2.513026955899732,0.5481103791758367,-0.4817931066522366,0.06583815675092047,0.3067897675069914,-0.5105378628500223,-0.02749144553951534,-0.4394032338765541,-0.09870726229708193
9.289944648742676,5.642432465786502,0.8794631845859945,2.514347382864702,0.5514733735078479,-0.4892936481774422,0.06556970144038717,0.34618391595332354,-0.5224863993323268,-0.030657549147623517,-0.44060287560924394,-0.05998208663449134
9.309862852096558,5.658997437930714,0.864680645578935,2.516317207967211,0.5584042669639616,-0.5013603651095687,0.06509576919425485,0.38307354948691447,-0.5327389935776469,-0.03369142008351803,-0.44268792370481247,-0.10425240477842657
9.330014705657959,5.6702445449226015,0.8545462597368089,2.5176121884567393,0.5664259114689414,-0.5121088835436749,0.06439254274703107,0.41891749843829007,-0.5419385704723384,-0.0366125459950043,-0.4433185148710881,-0.0315295583137809
9.349966526031494,5.6758481273128165,0.8494980439364161,2.5182693556976465,0.5686739698920822,-0.5147690385226913,0.06443024180088669,0.4530124170852537,-0.5456978285341374,-0.03935616572567306,-0.4429817150326123,0.016839991923789377
9.369896173477173,5.693044160451918,0.8338862109274179,2.520200550676602,0.5806916981468065,-0.5289418107353413,0.06368142087177717,0.48775895577380773,-0.5368836987298011,-0.04197097700110849,-0.44405588308936306,-0.05370840283753786
9.39002013206482,5.704757810520015,0.8232006023974163,2.5214656157646025,0.5907856606924565,-0.5395885436374178,0.06281671708885211,0.5214647456398961,-0.5277342134117221,-0.04448224982252451,-0.44387489122829926,0.009049593053189753
9.409873247146606,5.710666636401152,0.8178170141081305,2.5221051326177286,0.5956444621688021,-0.5437520018582032,0.06273417844042113,0.5552617204260898,-0.5170315631140623,-0.04683070076912354,-0.4433979187351551,0.02384862465720783
9.430056810379028,5.722692778193652,0.8068392949027737,2.523350298364302,0.6070788503653973,-0.5539833367805951,0.06177489291249455,0.588001890786071,-0.5060570863835749,-0.049081712083986505,-0.443010747570018,0.019358558256854508
9.449999332427979,5.734915299746859,0.7956411805248617,2.5245957973496624,0.6182928328580919,-0.5644456675558358,0.06126291702603907,0.6243677040703416,-0.477857259779998,-0.0511768071198711,-0.44262862528280067,0.019106114360867288
9.469966173171997,5.747408393186119,0.7842585552217248,2.5258106852450686,0.6311336602942268,-0.5737242279707973,0.060219194289277085,0.659512697525806,-0.45006677811606727,-0.05318029377700739,-0.4409085707245408,0.08600272791299268
9.490001678466797,5.753744286418938,0.7784437618888634,2.526420703600796,0.6377131036386301,-0.5795264463911918,0.05996487711903069,0.6800133624449163,-0.4092247356372335,-0.05503788315809259,-0.44131987558468344,-0.02056524300713125
9.509898662567139,5.773169915916634,0.760754636965739,2.5282040813647493,0.6579708492710328,-0.5949412655466784,0.05855590243617715,0.6946827942388814,-0.3666098459761543,-0.05676643355882608,-0.4387396144285871,0.12901305780481653
9.53002667427063,5.786469220481004,0.7487852802993714,2.5293637350418994,0.6720067119073945,-0.601855705463552,0.057403979743665144,0.7088143163655907,-0.32500099290713946,-0.058412111739311504,-0.4365954788573605,0.10720677856133065
9.55007028579712,5.800099901372212,0.7364435532110637,2.530507480219209,0.6875866412205458,-0.6142049171140933,0.05639149497350718,0.7138845330250486,-0.28753885360924536,-0.05990141423769109,-0.43608935996916465,0.025305944409792502
9.569942951202393,5.813994736023037,0.7241044012812002,2.531623234403871,0.7019128530091712,-0.6195882843804353,0.05517921568097535,0.718693327644015,-0.2509412663235257,-0.06131377438515535,-0.432190835438063,0.19492622655508107
9.589959383010864,5.8211250607057226,0.7177048125520938,2.532172314665394,0.71149884261181,-0.6272730574921196,0.05455728853985794,0.7392510644045033,-0.21829249278458426,-0.06258898591258066,-0.4332660214927837,-0.05375930273603391
9.609853982925415,5.850321114955143,0.6921204433290894,2.5343011355339473,0.74488766983427,-0.6435448312725586,0.051946798219505326,0.7575277112566752,-0.18442697994900595,-0.06370060886197092,-0.42567721229180444,0.37944046004896315
9.629979133605957,5.865371548810525,0.6792148675245798,2.535327260630697,0.7602137411957406,-0.6469032913079393,0.0506622297862989,0.7749355429188973,-0.15158943560080781,-0.06474512453935165,-0.42403588748734533,0.0820662402229555
9.6500563621521,5.873113674183413,0.6725734908359084,2.535825833595774,0.7708324167371292,-0.6526578068710018,0.049867728956459766,0.7727222878856546,-0.10201734780444785,-0.06566158190707626,-0.4228788961617673,0.057849566278900255
9.66991376876831,5.896677478549644,0.6527679867947577,2.5372884335794845,0.796640509888027,-0.6603960133580612,0.047780244440145093,0.7712163036638994,-0.046499813674485135,-0.06644497504048107,-0.41627674740312415,0.3301074379321589
9.689989805221558,5.9127644291848265,0.6395543858474729,2.5382307001672952,0.812049372309627,-0.6607844737646873,0.04644399734050586,0.7696619165576422,0.007382764945245839,-0.06717008855551286,-0.41317315279069966,0.15517973062122437
9.709902286529541,5.9293288311444,0.6260657375103235,2.539137948906689,0.8317541753315422,-0.6671421003759694,0.04488359280257513,0.7694081011885141,0.0603299265862544,-0.067750764153904,-0.4096341583131644,0.17694972387676255
9.730080366134644,5.946117773576692,0.6127384105140715,2.5400220345370186,0.8471388375727941,-0.6654194861233462,0.043523210222177554,0.7690390263482846,0.11166416106907684,-0.06827877901745405,-0.4045256133819475,0.2554272465608465
9.750057220458984,5.954755884799482,0.6058957977153796,2.5404469186637675,0.8584885505007571,-0.669384688937368,0.04263687978379051,0.7667075708225675,0.1609338205950427,-0.06870142140290138,-0.40415415553791156,0.01857289220179581
9.769968032836914,5.972078838524171,0.5925434980648541,2.541285890216119,0.8737988262612552,-0.665686187964358,0.041259027462350384,0.7643088738812547,0.20866055180440296,-0.06907582970133179,-0.3969393073344252,0.3607424101743195
9.789986610412598,5.989907604917031,0.5789416445484205,2.542087049085825,0.8940511101525779,-0.669300367444003,0.0396216304355259,0.7620023175018493,0.2545767795290303,-0.06931867582370471,-0.39433240521582125,0.13034510593019633
9.809903860092163,6.017195493789571,0.5587908455479172,2.5432389313333914,0.9204039222389402,-0.666486946833662,0.0373858679407251,0.7604519844009954,0.3050365670296542,-0.06944430527103523,-0.38491895293283385,0.47067261414937
9.829969644546509,6.035755555939895,0.5455253941841542,2.543972753435964,0.9355969029355837,-0.6598955632579865,0.035996055280846935,0.7588350380224339,0.35382476736631574,-0.06953042598510413,-0.3806850565066302,0.21169482131018214
9.849977016448975,6.045261018654441,0.538801188500195,2.544324982844082,0.9463380879268721,-0.6599778306693092,0.03518066704929241,0.7577129102670028,0.3995633800814349,-0.06954029401922969,-0.3788066578836631,0.09391993114835628
9.869905471801758,6.074093715500388,0.5190289665866156,2.5453465623722673,0.9719522158824735,-0.6518877962052206,0.033026787881545595,0.7579906856067795,0.44803129910024453,-0.06944611168949795,-0.36757407869985004,0.561628959190652
9.889953851699829,6.0936843679845945,0.5060839626086218,2.5459932168315267,0.9871133935041667,-0.6424567333064392,0.03163908141795287,0.7580990105098643,0.494792113440799,-0.06931910842153692,-0.36301243090453594,0.22808238976570472
9.909846782684326,6.103683457416832,0.49956800204988167,2.5463047835418964,0.9972516458783317,-0.6403909020100454,0.030910468379573036,0.7591711765882896,0.5380614945588308,-0.06913327324239525,-0.36067680384078615,0.1167813531874895
9.929950475692749,6.1237803851391215,0.4868706018203623,2.5469091801430874,1.012443974285565,-0.6292101553938002,0.02952991091039552,0.7600256028050357,0.5797514657146998,-0.068917530225301,-0.35192039292856325,0.43782054561114503
9.950076580047607,6.144296741449808,0.47421119939944095,2.547486836039171,1.0305125176366996,-0.6219895077187502,0.028181235036632078,0.7646105532159683,0.6171250432435705,-0.06861785227707864,-0.34658873268339496,0.2665830122584145
9.969943761825562,6.165060201276715,0.4618972545133581,2.548036758463191,1.0458475303635213,-0.6092851486908833,0.026812093763073697,0.7688302227352575,0.6530749819453724,-0.06829194051957715,-0.33831053238277686,0.41391001503090497
9.989981651306152,6.175614201358341,0.4557431295532274,2.548303737772972,1.0551463876018419,-0.6050964483384959,0.02620129744698122,0.7703675659493926,0.6820532791502502,-0.06792580243126523,-0.3368733109749389,0.07186107039189871
10.009831666946411,6.218493208995916,0.4319740111776566,2.5493029425537297,1.0873429188175046,-0.5801010971620847,0.023630650723209783,0.7709191860633843,0.7108119526046043,-0.06744817079391213,-0.31702425754202945,0.9924526716454718
10.030036449432373,6.240394277812056,0.42051600940772565,2.5497620987956453,1.1027651245618455,-0.5656071750949989,0.022286633361787846,0.77126775789942,0.7383836121463917,-0.06695020916636168,-0.31329301143475696,0.1865623053636245
10.04998779296875,6.251487233844724,0.4148881066109891,2.549982960160458,1.1112320989859215,-0.5581832287718028,0.021647650959037174,0.7717405372962283,0.7634314751553876,-0.06641980723690258,-0.3088818085768561,0.22056014289504322
10.069913864135742,6.273866244032907,0.4038787436167136,2.55040266549636,1.1266697359647753,-0.5426732097257848,0.020324711672791554,0.7719854265556718,0.7873899754359294,-0.06587110078270957,-0.2991210221157208,0.4880393230567659
10.089951515197754,6.285192503834961,0.3984913800481883,2.5506033632836895,1.1349809089031115,-0.5345583240368373,0.019698264208203024,0.7721233004511189,0.8077174398483838,-0.06529354887070496,-0.29657288883791244,0.127406663890417
10.10981822013855,6.331233214396179,0.3777757537268009,2.551341770124294,1.1664300664168932,-0.5014345382502355,0.017163310179312215,0.7709469651407228,0.8254749569996618,-0.06460947302941066,-0.2740572160708368,1.1257836383537834
10.129974365234375,6.354715915822388,0.36791329781359244,2.551672160682375,1.1818354316543065,-0.4847547878370439,0.0158780686799375,0.7695536513539437,0.8423547112126463,-0.06391256266404366,-0.26969855972922074,0.21793281708080148
10.149986505508423,6.366582383425791,0.36316219450436915,2.551826362674956,1.1897887730100503,-0.4746009079259277,0.015193996302810698,0.7686835273168228,0.8572801088981232,-0.06319148726192993,-0.2642833053516629,0.2707627188778927
10.170019388198853,6.390531825241754,0.3538425878566132,2.5521176529331826,1.2051516870290604,-0.4573126367282229,0.013937470171578112,0.7675671184167653,0.8714163120480661,-0.062459296337863075,-0.25406458710314395,0.5109359124259472
10.190018653869629,6.41479699918501,0.34496663284890833,2.5523813031516,1.220641778008231,-0.4373206324267297,0.012634615944985146,0.7603208924469368,0.8833797050283837,-0.06166995327973576,-0.243977511753819,0.5043537674662479
10.20986533164978,6.439364275650606,0.33644111293720014,2.5526210402875265,1.2358782296327222,-0.4181349229448904,0.01138683020326872,0.7534046693030537,0.8879479219238054,-0.060850558761357657,-0.23419015317682845,0.48936792884952673
10.22997522354126,6.464232057907917,0.32825628569319254,2.5528366617627767,1.2508767967323535,-0.4003340989960019,0.010178072306953712,0.7464448794997581,0.8920587638988462,-0.060024067009448775,-0.22504916373979267,0.45704947185178924
10.250075817108154,6.4894152858427105,0.32056765759273914,2.553026113069626,1.266253457953325,-0.3788228474585418,0.008929148258807527,0.7480061808945024,0.904922287600653,-0.05914809654727796,-0.21365708509530812,0.5696039322242274
10.269983291625977,6.514890040090439,0.31317300348614924,2.5531929250463237,1.2812258248779267,-0.3606022922744406,0.007754984740884308,0.7491636946591759,0.9170037355427532,-0.05826750084881545,-0.20457514855006265,0.45409682726227363
10.289970397949219,6.527749773544667,0.3097155463283925,2.553265003260313,1.2889024753517184,-0.3484260168487858,0.007105158606529111,0.7391136151976755,0.9250233708824039,-0.05737546267052862,-0.19922914325044427,0.26730026498091863
10.309872150421143,6.566754752400815,0.299771110054533,2.5534492053131648,1.3111279321080338,-0.3180035350205492,0.005304133336761219,0.7262977883638533,0.9299546330287453,-0.05642200846641028,-0.18091198736049074,0.9158577944976765
10.3300199508667,6.593121723560181,0.2935973345509745,2.5535440671956504,1.3255269538364844,-0.2993592067376577,0.004185236610213712,0.7136287750984002,0.9343973237312961,-0.0554675014905229,-0.173050331269339,0.3930828045575874
10.350509643554688,6.61979174003648,0.2879389937858495,2.5536107992515573,1.3401639262819567,-0.27711515441090767,0.0029230587312509735,0.7011687567037096,0.9354284410235895,-0.054468217379813624,-0.16065418210372595,0.6198074582806523
10.370731115341187,6.660335879326536,0.2801412858280534,2.5536684642746486,1.361786772441033,-0.2463591357854677,0.0011391190539263244,0.6890023606990155,0.9322736909150557,-0.053410157168675296,-0.1435789376823533,0.8537622210686324
10.390006065368652,6.68770861219733,0.2754003375325245,2.5536806349859646,1.3754464955852959,-0.2277468748475556,8.146718857736652e-05,0.6769966234287558,0.928919421196295,-0.052355625502795544,-0.13486519312176837,0.43568722802924675
10.409909725189209,6.715392343615264,0.2711852936562759,2.553660616829459,1.3898736277668235,-0.20544458495797382,-0.0012451953372105621,0.6636918318251331,0.9103144619953952,-0.05125680081848298,-0.1222575801453929,0.6303806488187735
10.429981708526611,6.743321676677017,0.26725724255493105,2.553625534530679,1.403015936871529,-0.18742134087408593,-0.0022593909465578725,0.6505693475985057,0.892069696246049,-0.05016372370012838,-0.11274271357581478,0.4757433284789059
10.450228452682495,6.757411311798489,0.26554232895071705,2.5535923982497577,1.4101517473003633,-0.17531847022641206,-0.0029817441256697313,0.635405029001006,0.8777176349138422,-0.04906726582019783,-0.10652020319558142,0.31112551901166796
10.470046758651733,6.785740429122316,0.26221055664050835,2.553523022680515,1.422710258160942,-0.15790591032068463,-0.00395218001458869,0.6204869178303972,0.863572750036648,-0.04797743152666031,-0.09620439584184659,0.5157903676867415
10.48997187614441,6.814372952098886,0.25944002870692756,2.5534185806961154,1.436371961105691,-0.13531816021321275,-0.005312896042658055,0.607425547231582,0.8552600115900385,-0.04684212424038868,-0.08317847700831926,0.6512959416763664
10.509859561920166,6.857772360373747,0.2559004625323216,2.553225381453679,1.4554923905388135,-0.10586601817428827,-0.007069113073594324,0.5969028614151771,0.8520429290557426,-0.0456488940460099,-0.0657970536984327,0.8690711654943284
10.529957294464111,6.887000891828382,0.25395332644397445,2.5530749484016377,1.4673259848042877,-0.08885896871914771,-0.00797025205744603,0.5864718217156619,0.8486295636424475,-0.04446687207953582,-0.05630800207739206,0.4744525810520317
10.5500009059906,6.901727793660068,0.2532179151834915,2.5529822149676544,1.4737318119997571,-0.0771790739819438,-0.008711181976083308,0.57085945256741,0.8594556103755591,-0.043285962745835016,-0.04945197936175472,0.3428011357818672
10.56994915008545,6.93131557835312,0.25184691188398894,2.552799412269437,1.4849957734941184,-0.059887476939078324,-0.009565191036559862,0.5555942470704147,0.869589466721977,-0.04211691976607499,-0.03862268875053143,0.5414645305611643
10.590052604675293,6.946219642702858,0.25137048584783084,2.5526932047927393,1.4911362574030367,-0.048908805333042836,-0.010207112417836376,0.5370191093148471,0.882072956599937,-0.04095478477395108,-0.03193141788680487,0.3345635431863281
10.609816789627075,7.006350342304069,0.250165604784642,2.5522444169012557,1.5138214103921888,-0.012485466427816493,-0.012012445212383356,0.5189274015128285,0.8941056272629136,-0.03972488460492056,-0.008432301854542246,1.1749558016131312
10.630023956298828,7.036729370997994,0.2500954788943866,2.551996304260631,1.5240225592620107,0.005510333446004514,-0.01279476934301361,0.5012574072319836,0.9053426139465989,-0.03851003149505357,0.003439841132038879,0.5936071493290562
10.650208711624146,7.052020116123063,0.25020127936859066,2.5518615475294957,1.5295818519573143,0.014751172196716157,-0.013319635809776773,0.48101504661437583,0.9130176220826818,-0.03731278098514624,0.00890060198326692,0.2730380425614021
10.669937372207642,7.082706633239472,0.2506793853967766,2.5515877713182893,1.5390041530454388,0.03308284422611335,-0.01405404481447914,0.4613029586583464,0.9200418498283442,-0.03613063102662829,0.0200328253052664,0.556611166099974
10.689940214157104,7.113640665869339,0.2514990095281325,2.551291070727565,1.5496483773287415,0.05083316081111925,-0.014956372781685538,0.44449017130547896,0.9230786381918443,-0.03493583303153994,0.02996336269336597,0.4965268694049785
10.709840297698975,7.160370070274782,0.2534191856065464,2.550825250487396,1.5639613710162794,0.07794239174285182,-0.01602999140394525,0.42725443441952404,0.9214375123892817,-0.033720652969127726,0.0448753909241324,0.7456014115383214
10.729986429214478,7.1917336212494645,0.25516219567420745,2.5504979866725117,1.5723377196031045,0.09635208948878095,-0.01669239732140102,0.41045230175693825,0.9194799349867504,-0.03252282245861488,0.05360413852517043,0.4364373800519017
10.750004291534424,7.207503835682655,0.2561547445588981,2.550329615005513,1.5769522528543427,0.10475303542210347,-0.01699957444858826,0.38457220765286554,0.8798176734778669,-0.031356374255533115,0.057144934644614676,0.17703980597221225
10.77008867263794,7.239118108267715,0.2584231694994531,2.5499834291597874,1.584391296362639,0.12196023688426477,-0.0176151782608148,0.3594592753157379,0.8410510015076383,-0.03020681374632599,0.06592572738774427,0.43903963715647976
10.79000973701477,7.270937945618014,0.2610692124339797,2.549625027875601,1.5930118274922405,0.13984030573384884,-0.018224365251412133,0.3462812324628806,0.8211413806904593,-0.02906126721504552,0.07404344368553506,0.40588581488953945
10.809841632843018,7.318923851089472,0.26571160577672004,2.549061316241042,1.6042888909618653,0.16640991383367462,-0.019200022395065616,0.32019495654657454,0.7839455799071486,-0.02789584322519456,0.08632610633267879,0.6141331323571864
10.829986333847046,7.3510719686125015,0.2691941566224555,2.548671813393006,1.6104385561025245,0.1817240589716939,-0.019746439368226933,0.29490323536763646,0.7476119063745293,-0.02674892913716785,0.09183156416051386,0.2752728913917535
10.850180625915527,7.367220018432645,0.27113696635738654,2.548468904524467,1.613992337209969,0.19146513323471198,-0.02012214929293888,0.2701061530134076,0.7155589465635649,-0.025626906674247912,0.0956280878883069,0.1898261863896522
10.870136737823486,7.399552272332226,0.2751072812615993,2.548061410048411,1.6191529959382498,0.20546199812711302,-0.020623618872832258,0.24608896208212597,0.684251103702287,-0.02452307274700181,0.10161295501218826,0.2992433561940677
10.88998532295227,7.432058848988609,0.2795465465562631,2.5476372827832803,1.6257711750419774,0.22389883059821838,-0.02127006868167245,0.2260106214677042,0.6736748693395583,-0.023418064697985252,0.10915315198237074,0.37700984850912445
10.909889221191406,7.480978256241757,0.2866778207355743,2.5469852790063854,1.6336142648692429,0.24713590343606015,-0.02205638085564109,0.20410951767950097,0.6654593788032733,-0.022300216320433403,0.11830898576867765,0.45779168931534553
10.930001735687256,7.513689935220413,0.29175307843788195,2.546539764884042,1.6374827497537976,0.26036217986440013,-0.02249137083040564,0.18284443744520207,0.6571533318163195,-0.021202049437598316,0.12233281800968276,0.20119161205025549
10.95001220703125,7.530101561213583,0.2944594547592646,2.546312186452429,1.6399082985128406,0.2688511527854193,-0.022737446457463503,0.16390692123087164,0.6575834890666256,-0.020135241639033977,0.12526605342398156,0.1466617707149398
10.970010995864868,7.562931275584492,0.2999680034597504,2.545853480640179,1.6430019785197187,0.28200383829170256,-0.023129642362465126,0.14555880162841017,0.6576198882309592,-0.019087517762738957,0.13040782588444433,0.2570886230231384
10.990061283111572,7.595869082715783,0.305790748427121,2.5453873090674706,1.6469519492896936,0.29629419194787987,-0.02348557520050383,0.12877074828454346,0.658535526079428,-0.01805420826320837,0.13543134507073473,0.2511759593145202
11.009870052337646,7.645355779248678,0.31497390776933665,2.5446774784980355,1.6512558744952164,0.31597032293237837,-0.023933025554465012,0.11598415698620415,0.6611841022661179,-0.017023886673047946,0.14267484906995564,0.36217519996104564
11.029998779296875,7.678403261938317,0.32142570358493183,2.5441954809225202,1.6534511577362112,0.3292164878732459,-0.024263362534433352,0.10361306722707155,0.6633529844198676,-0.016013045360258302,0.14654195953135396,0.19335552306991577
11.050050735473633,7.6949445124714355,0.3247298813561553,2.543956488937609,1.6543959824729344,0.33524790164607504,-0.02428641627394186,0.09202497292906323,0.6675051279766061,-0.015043825852400055,0.148149223806894,0.08036321377700162
11.069859266281128,7.728050083801964,0.33156859033113717,2.5434678155359363,1.6561238035759909,0.3486350467493044,-0.024577754805255998,0.08082080827866966,0.6711205156606086,-0.01409309698265248,0.15334931217644954,0.2600044184777772
11.089992761611938,7.744611651062933,0.33504982250144677,2.5432261692573936,1.656711215495097,0.3541792592249642,-0.02456934350203742,0.0712396744503832,0.6666432352903874,-0.013182816237797445,0.15433303841890345,0.04918631212269542
11.10983657836914,7.810920732228276,0.3496760113445344,2.542241094279982,1.6589724068260103,0.37897509665857776,-0.024877008660610257,0.058340207859640926,0.6658722731940995,-0.012269178087669001,0.16423097334477132,0.494896746293394
11.130019187927246,7.844111010060134,0.35738861896276664,2.541741160271833,1.6600138173238437,0.39228193933878286,-0.02511340719426227,0.045872424077683494,0.6647546042055433,-0.011373687638080587,0.16698327523368173,0.13761509444552011
11.150045156478882,7.8606867550245605,0.3612927824685697,2.5414953028965575,1.659610300779126,0.397364112601424,-0.025055317856736637,0.0356532205911825,0.6549317700685081,-0.010519328718307566,0.1683630815664352,0.06899031663767374
11.169914484024048,7.893885428746583,0.36937039577317804,2.5409921487738596,1.6602242285086277,0.41036444571637354,-0.025257303624394822,0.025800283624834632,0.6451001400844533,-0.009682089797125565,0.17318498966121698,0.24109540473908897
11.190029859542847,7.910467816082991,0.3734609165979231,2.540744145045484,1.6597861473792603,0.4154943968247101,-0.025201077860718013,0.016729351934037535,0.6399973945624687,-0.008882769898815562,0.17393630975890773,0.03756600488453721
11.209841012954712,7.976841281157426,0.3905483450130669,2.5397361136909,1.6595517123118826,0.43993999929723265,-0.025370528444868708,0.007936971463037514,0.6338827030472449,-0.008082309727628878,0.18336809464856962,0.4715892444830949
11.23002290725708,8.010033333572435,0.3994735072138642,2.5392271391884402,1.6596253485002541,0.4525553941984254,-0.02552430924431826,-0.0005172939170125498,0.6276347649516191,-0.007298540374479508,0.18553709131978602,0.10844983356081972
11.250056743621826,8.0265962096171,0.4040012401441033,2.5389758566983476,1.6585465054461723,0.4579085260032848,-0.02546978290604969,-0.013322316154127973,0.6169165864798322,-0.006550171454892615,0.18709613564261707,0.07795221614155246
11.27012014389038,8.059763644366896,0.4132820822699418,2.5384652001062107,1.658155802057215,0.4701401481194845,-0.025593434415473716,-0.025672638895860758,0.6062550440751188,-0.005817601590948952,0.1913445936783167,0.21242290178498102
11.28997278213501,8.092881178917585,0.42277749036744267,2.537957555302233,1.6565735069868475,0.48148903448229113,-0.025568844518911622,-0.03554347352102141,0.594519563615242,-0.005107736779682193,0.19448765931152545,0.15715328166043818
11.309942245483398,8.142540886097551,0.43748134107609266,2.5371915384410353,1.6547965226272907,0.49900660092270693,-0.025620969012681922,-0.047049368053852604,0.5833746108241697,-0.004407186646830348,0.20022701537084364,0.2869678029659095
11.330052614212036,8.175626661345873,0.44757740968657267,2.5366782835537895,1.6537440956722835,0.510563421017389,-0.025702236016447878,-0.058121405292286925,0.5723228647917049,-0.003722075778780332,0.20278003742617035,0.12765110276633518
11.349985599517822,8.192138387947255,0.45270646851552765,2.53642414788865,1.6524372782944572,0.5160466785758984,-0.02564704725837806,-0.06652415913996737,0.5609330126852119,-0.003067663319750223,0.20415914451539052,0.06895535446100887
11.369909048080444,8.225173284957794,0.4631388341070551,2.535910636304612,1.6510255093043686,0.5271522301249696,-0.025701978624937276,-0.07459825381407259,0.5496378648343155,-0.0024279050355380262,0.2078780052267537,0.18594303556815905
11.3899405002594,8.241665027927862,0.4684451229007855,2.535655729219249,1.649824723201848,0.5327949904671144,-0.025657349074816732,-0.07690278857570194,0.5425530036029657,-0.001815825808263428,0.20884770751822712,0.048485114573670884
11.409797668457031,8.307569894097435,0.4902108835757158,2.5346302620397703,1.6460537240127442,0.5548855996199066,-0.025666747981785004,-0.07415531993599324,0.5343778289182892,-0.0012024031050476783,0.2166973936632859,0.39248430725293826
11.429917812347412,8.340476320362315,0.5014149247697736,2.534116726773727,1.6445980396911242,0.5654911794500868,-0.02568478186234257,-0.07141415325708503,0.5261757430025219,-0.0006033728915339827,0.21794476529033613,0.06236858135251211
11.450286865234375,8.373298955969352,0.5128327335127507,2.533604948753413,1.6417714148967306,0.5759989849487452,-0.025642996260029475,-0.06678737196657275,0.5173267644689135,-2.199624099799471e-05,0.2214656139920952,0.17604243508795303
11.469943761825562,8.406121332081465,0.524455587460555,2.533092122485456,1.6404814083591697,0.5862568355976115,-0.02563773935089549,-0.062223746390614135,0.5084545124298823,0.0005453613368328673,0.22384993346360904,0.11921597357569258
11.489895105361938,8.43883877577595,0.5362827795995307,2.532581499182314,1.6372598072158355,0.5963650590230394,-0.02557152024688505,-0.055835989156822495,0.499687558466683,0.0010949387184081996,0.22682916718924195,0.14896168628164563
11.510023355484009,8.471573224533147,0.548309432316704,2.5320703237213307,1.6362059590210274,0.606270889338432,-0.025544239353581043,-0.04956881078857273,0.4908905726957987,0.0016308901793994053,0.22913913253921603,0.11549826749870373
11.529941082000732,8.48787275298154,0.5543976932289537,2.5318162671600892,1.634043567484348,0.6111340305338275,-0.025486108569149662,-0.04341090664118306,0.4827854913391776,0.002142860624154772,0.23026365547008298,0.05622614654334779
11.549909830093384,8.520545346574176,0.5667163889397467,2.5313070070419803,1.633235911940065,0.6207084135429901,-0.02543823996494974,-0.037374834788882656,0.4746474108050093,0.0026418457230749826,0.2329784395791803,0.13573920545486562
11.569928407669067,8.553101534953164,0.5792355475164553,2.5308000143330776,1.6300099383330782,0.6303827724014835,-0.02535122136482809,-0.0316175058520641,0.4666073011670623,0.0031249628090317277,0.23556612005345423,0.12938402371369673
11.590005874633789,8.58569578853766,0.5919359863999059,2.530293646473885,1.6294342449757229,0.6396341816835748,-0.025283996259442842,-0.025970025655160798,0.45852704497411073,0.0035954533258028606,0.2376612717444342,0.10475758454899786
11.610233545303345,8.601924021830568,0.5983600241440562,2.5300416935840278,1.627381366240081,0.6442890851141657,-0.0252234577226425,-0.02021608614160131,0.45201079768287317,0.0040449435251520074,0.23862665964597385,0.048269395076983024
11.629937887191772,8.650671238331363,0.6178984655004599,2.5292873534797704,1.6249726082146498,0.6579695502095806,-0.02508248083463554,-0.014328465394250676,0.4460034821271551,0.004486119159254974,0.2427535664160554,0.206345338504077
11.649908542633057,8.683168211786429,0.631146650464389,2.5287866298936486,1.6247439949811788,0.6668285063314952,-0.02498844746898791,-0.008551138264686694,0.43987156733391336,0.004915213700875186,0.24397896371107652,0.06126986475105678
11.669960021972656,8.699356092318363,0.6378361768717041,2.528537778301811,1.6230284751552175,0.6711412169454317,-0.02491340340621253,-0.0030119550444371174,0.4338147068872075,0.005324217571218342,0.2450249871455128,0.05230117172181359
11.689915180206299,8.764187868178663,0.6650263650265809,2.52754634368567,1.6207956708562858,0.6883389421724735,-0.0246739166673351,-0.00030398416289722434,0.426277990316225,0.005728342949213263,0.24990001385465543,0.2437513354571319
11.71000361442566,8.796603899973986,0.6788778933857206,2.527054037378236,1.6208164449832836,0.6967885299142125,-0.024555405895425715,0.0023769137654405122,0.418668873383716,0.006120799093290994,0.25047407668692,0.028703141613228844
11.729936599731445,8.81276801151212,0.6858583122787382,2.5268096427366236,1.6196036284405038,0.7006694023902347,-0.024467252574295776,0.002632313880183609,0.4114114714663571,0.006493808944119062,0.2515684125237372,0.05471679184085865
11.74997591972351,8.845160629688912,0.6999534950757139,2.5263216207579235,1.6196591816160557,0.7088244389367814,-0.02433373896592953,0.0029300201433061796,0.40407999117334376,0.006855709739354689,0.2534376742949873,0.09346308856250651
11.769947052001953,8.861323188826521,0.7070590404547428,2.526079212947956,1.6187810873871846,0.712733376415054,-0.024244875415514767,0.008197605895787956,0.3989290961614675,0.007199625966733959,0.25391367877682036,0.02380022409165239
11.789886236190796,8.92604301294154,0.735886779946601,2.5251159207001304,1.6182256531334134,0.7285998463842768,-0.02393427564657929,0.012996069976480475,0.39380394545736835,0.0075366676474473634,0.25803042045450253,0.20583708388410837
11.809914827346802,8.958410440635493,0.7505371882161906,2.524638764457341,1.618532812924329,0.7364233800092411,-0.023780260631330798,0.01770508571119268,0.3885238226863414,0.007863069807886173,0.2584458099313509,0.020769473842419117
11.829896211624146,8.990755590667803,0.7653296479820874,2.5241658779029583,1.6181995754231528,0.7438227089875941,-0.02359131948052779,0.022304216688503978,0.38654418736542157,0.008174117858395238,0.26025267982812617,0.0903434948387627
11.8499436378479,9.0231243449776,0.7802832660091646,2.5236957065619015,1.6186908764898529,0.7515316291435536,-0.023424811852275507,0.026810516256823326,0.38430488056930023,0.008474951508704781,0.2613927949327768,0.05700575523253093
11.869922637939453,9.039294237326747,0.7878038407208166,2.523462848407687,1.6184748795799415,0.7549545840986764,-0.02330938283280666,0.030756319882588385,0.38356922190965254,0.008758683160448045,0.26192512263113965,0.026616384918143332
11.889928817749023,9.087843817772596,0.8106064025328691,2.5227684881075048,1.6188883026965908,0.7659261588234916,-0.023015943902609397,0.03180625350884801,0.3848776999005189,0.009031198413014321,0.2643528371650361,0.12138572669482262
11.90995740890503,9.12022801592527,0.8260019702432783,2.5223099931587734,1.6195350691951096,0.7736337602954766,-0.022832674408539793,0.03287324122165069,0.38582220773913367,0.009294168699600178,0.26515348728155885,0.04003250582613749
11.929901123046875,9.136414411308655,0.833732463662569,2.5220833156704003,1.6195907174297814,0.7767867272591464,-0.022703383163230718,0.03419322394882686,0.3888544679031162,0.009540846082618315,0.26560489220715544,0.022570246279829398
11.949975490570068,9.168813152943638,0.849346150585879,2.5216311721689895,1.6202878888709786,0.7845906974110416,-0.022510174842720262,0.03552606494336266,0.3914742613597343,0.009778488277840372,0.26713234575620604,0.07637267745252974
11.969897031784058,9.217433431115209,0.8729881344160639,2.5209627432959,1.621313325764478,0.7947137233176836,-0.022159050787148592,0.037311370152049654,0.3929150050181221,0.010001216127524025,0.26867934284018746,0.07734985419907137
11.989926099777222,9.249867279104446,0.8889610696775473,2.5205215769401206,1.622077436175599,0.8025833905788425,-0.021956871106353484,0.03910027599741739,0.39399141225814094,0.010215323063887142,0.26973468205639284,0.05276696081026877
12.00986123085022,9.282322625728076,0.9050354099072393,2.5200865016784832,1.6230214028567458,0.8090908404718599,-0.021700604649361927,0.0402164801331716,0.397334532542259,0.010414222371748747,0.27069087506897915,0.04780965062931575
12.029964923858643,9.31479117269485,0.9212968942164137,2.519654585281305,1.6238370944236036,0.8170672515075786,-0.021490399269792255,0.041356658214352734,0.4002329504410097,0.010604963506680392,0.2719458681560676,0.06274965435442148
12.049966096878052,9.331036553524735,0.929450986275229,2.519441496208131,1.6244169370829364,0.8200381840143219,-0.021346002748355464,0.0439984413912497,0.4017631990963251,0.010781691474914017,0.27209107329136994,0.0072602567651181005
12.07000470161438,9.363533866362271,0.9459321844965001,2.5190167438877364,1.6253230387541777,0.8280854004813974,-0.02112866586309846,0.04660607454640339,0.4028920020985763,0.010950721310747666,0.2737769115203901,0.08429191145100656
12.089977502822876,9.396056262140458,0.96251699835155,2.5185981052075506,1.6264552746696557,0.8347034148619328,-0.020864959012764674,0.05125602182833559,0.40121336161491944,0.011105894061037425,0.2742226127809242,0.022285063026705743
12.109951972961426,9.428597168119794,0.9792720756440519,2.5181836401526314,1.6275615635645946,0.842063108964569,-0.02062134319707646,0.055402552709323795,0.39746220378051383,0.011250786356575122,0.2754795368558849,0.06284620374803485
12.129953384399414,9.461159751891076,0.996192567880305,2.5177734727520242,1.6287103394260252,0.849972792184066,-0.020394937412874067,0.059460328958557324,0.3934655264203474,0.011388622948090859,0.27655223949700636,0.05363513205607351
12.150062561035156,9.477449544952671,1.0046861303335322,2.517571048646542,1.6293123433884127,0.8531834206554109,-0.020252985528975226,0.06147892421461798,0.393080142877091,0.011515014948860924,0.27661561734745543,0.003168892522453781
12.169846534729004,9.542665911949692,1.0391048030817531,2.5167710824261174,1.6316616781269995,0.86834184266713,-0.01976848699222774,0.06286747578349462,0.39310442399347717,0.011629683847466175,0.27931566529977303,0.13500239761587984
12.189955949783325,9.575311810445864,1.0565502449595892,2.516378045944749,1.632932724810474,0.876201263081041,-0.019534800405104906,0.0642334810590629,0.39277989605830216,0.011737906990192986,0.27956107508325,0.012270489173848986
12.20992922782898,9.591645153480977,1.065318072205243,2.5161837496990507,1.6336575174554309,0.8796793949822771,-0.019403587415666234,0.0706689036707089,0.3861232861124283,0.011836608416263984,0.28013059035402366,0.028475763538682308
12.230005025863647,9.624332858402811,1.0829884331800865,2.5157980515466574,1.6351338779065405,0.8873339946158924,-0.019165919175193096,0.07693988779975991,0.3793109688257524,0.011929204192572901,0.2810923320002332,0.048087082310477314
12.249926328659058,9.657047975132926,1.1007980595932978,2.515417623204082,1.6366188356365436,0.8945353103753941,-0.018914388520747238,0.08239202618895973,0.36685475281162355,0.012011425402558581,0.2818912022790907,0.039943513942874986
12.269892692565918,9.706175089795153,1.1278055039286583,2.5148557227169794,1.6388760017882165,0.9056414459426615,-0.018550428795582944,0.08661354550749507,0.3536683641388468,0.012084260291892265,0.2833323587013159,0.07205782111125991
12.289914608001709,9.738970208377717,1.14598819140438,2.5144871355699334,1.6406495556994747,0.9125836122189515,-0.01830806168395176,0.09072333752055181,0.3405615449547533,0.012151528963057991,0.2836047901625607,0.0136215730622391
12.309957027435303,9.755372128691215,1.1551483539527283,2.5143044266577252,1.6413362185347087,0.9163567634950182,-0.018193650661567768,0.095237008509857,0.32305062799499407,0.012212076829404188,0.284193602701154,0.029440626929666536
12.329962730407715,9.7882181953482,1.173538943830468,2.5139429998306633,1.6432850915737969,0.9226446455798195,-0.017948847902111726,0.09963035407503344,0.3057769910411341,0.012267320728092381,0.2847408186131397,0.02736079559928495
12.349935293197632,9.821085719596816,1.192120607536476,2.513585343085504,1.6448846163755033,0.9306134772296544,-0.01773293893220579,0.10657873776129889,0.3176334790985712,0.012315625336814653,0.2856355425164705,0.04473619516653926
12.36992073059082,9.870467511873477,1.2202215183051452,2.5130578440783493,1.6477373769126884,0.9412964498308513,-0.01739280140009179,0.10901362113530019,0.328863057970146,0.012356720848343763,0.28665537273849573,0.050991511101261544
12.389885663986206,9.903444224277616,1.2391139191860219,2.5127124618880794,1.649941967422034,0.9479777853599178,-0.017145297021389342,0.11144479386525839,0.3391074133715457,0.012392903575613413,0.28684239772247677,0.00935124919905217
12.409888505935669,9.919939429337163,1.2486175921711982,2.5125411701780425,1.6508265918368463,0.9516124882408451,-0.01703237262176489,0.11636389590508661,0.3521794938617497,0.012423653450646761,0.28736892559938365,0.026326393845343965
12.430017232894897,9.952979557180614,1.2677210942518267,2.512203009271739,1.6532022757133198,0.9587776300723726,-0.016783631116807106,0.12118887086864656,0.3641528202963103,0.012449722005979698,0.287832564966382,0.023181968349916815
12.449949026107788,9.98605218521471,1.286915176616208,2.511870494247817,1.6552174209766815,0.9646713609938804,-0.01651507977615925,0.11970923781350849,0.37273730630302,0.012466186661507152,0.28819921060826825,0.018332282094313257
12.469862222671509,10.03575518917548,1.3159694576297098,2.5113816676981475,1.6586344449393855,0.9743793875453878,-0.016111673984038313,0.12227308945186657,0.3793158327119633,0.012471873641035443,0.2889479823178487,0.03743858547902157
12.489924907684326,10.068952503021563,1.3355333039151782,2.511061928768913,1.661105446166842,0.9820242950257407,-0.015862213517658205,0.12482503625498377,0.38503224268812486,0.012473501097956384,0.289360207047185,0.020611236466816507
12.509901285171509,10.08556719118823,1.3453258558697172,2.5109049363392675,1.662277891502025,0.9846253118339501,-0.01570911419867485,0.12386316519052686,0.39358779640942093,0.012468555634736223,0.28943892992112596,0.003936143697047534
12.530076503753662,10.118837463635508,1.3650976019248575,2.5105932472471304,1.6647465534407502,0.9925746110046171,-0.01545982411463322,0.12302320054693788,0.4011832175764531,0.01245982664476913,0.29017965610455443,0.0370363091714232
12.54997444152832,10.152157598014227,1.3849600308737948,2.5102878294146906,1.6672761424621396,0.9988770654024546,-0.015178881815192741,0.1266251568077087,0.40195796295507435,0.012441746924263782,0.29037030557975285,0.009532473759921167
12.569967031478882,10.202236845059252,1.4150658799756834,2.509838922806851,1.6712520386316383,1.0098155361146612,-0.014781123774775216,0.13484272770630495,0.4073287464209104,0.012413775668685297,0.29129598636278464,0.04628403915158952
12.589957475662231,10.235689391292974,1.435343972439898,2.509545781062883,1.6740292495040616,1.0180088144835524,-0.014533154427993541,0.14284219377121193,0.41186019879841573,0.012382634676903023,0.29161345372588254,0.01587336815489504
12.609854698181152,10.25243616990064,1.4455079035195715,2.5094019802295193,1.6755098005007623,1.021112531169556,-0.014383393108493276,0.15310396664390352,0.4153489242323376,0.012346531234337465,0.2917711008319883,0.00788235530528869
12.629900932312012,10.285977655037938,1.466013418162424,2.5091167791193363,1.6786718685002864,1.0294480108508626,-0.014136848057937397,0.16305060724997053,0.41807242919418897,0.012307487543858311,0.29257715407398033,0.04030266209960054
12.649892330169678,10.319554789544084,1.4866293167433953,2.5088381271290583,1.6812176049503946,1.0363412406599832,-0.013850204906192508,0.16981485634927299,0.4093215848696731,0.012259571404367887,0.29258965499738165,0.0006250461700663124
12.669837951660156,10.353213544589012,1.5074374079866157,2.5085635716203694,1.6846797164864844,1.0444377501587956,-0.013605514359699478,0.17635998038769715,0.4002816226851543,0.012209053011608082,0.2930762184858007,0.024328174420951143
12.68991208076477,10.403773603331613,1.5389153069245733,2.5081628931457765,1.6886942627057286,1.0557089551004908,-0.013198881364190194,0.18071916670751423,0.3863995289130655,0.012146621458678732,0.2937603388812384,0.03420601977188742
12.709984064102173,10.43758391616395,1.5601058350912946,2.5079013405712898,1.6923510940249344,1.06329723152522,-0.012956591465034518,0.1849412414119857,0.37241056811462314,0.012082007904383602,0.29373961519321634,-0.001036184401104201
12.729973554611206,10.454496542003627,1.570769096511088,2.50777240985263,1.6936546916174906,1.0671930839947366,-0.012837113113619701,0.1862439231215319,0.3485571628159355,0.012015777254115283,0.29436571002351686,0.031304741515025825
12.750122547149658,10.50537493726767,1.6029869300144026,2.5073920067628963,1.69879404041003,1.0787623597206526,-0.012498728175767373,0.18166797517072059,0.32134386624886135,0.011943734156598279,0.29479946724982353,0.021687861315333734
12.77001428604126,10.539386855884993,1.624624650402181,2.507144416048526,1.702383185585755,1.0849202095988113,-0.012260589709885385,0.17727721594038717,0.2945029880938644,0.011869800149946774,0.2944814765639512,-0.015899534293617457
12.789954423904419,10.573468238060299,1.646482274278166,2.5068990795833503,1.7059186061589675,1.093178755754815,-0.012090022260349774,0.17436029831765365,0.26591310315876815,0.011795241317196307,0.2952444551631124,0.03814892995805952
12.810020923614502,10.607621294294475,1.6683971486343543,2.50665963312497,1.7093777275956028,1.0982148861614598,-0.011854878148054361,0.17157337176542334,0.2377749345970134,0.011718870772076697,0.29449303851794495,-0.03757083225837121
12.829917192459106,10.624735165774368,1.6794784343742948,2.506539125907991,1.7114157558826462,1.102800797627223,-0.011812122143908282,0.16974893472992145,0.20360811459736164,0.011646083633274091,0.29531576392116365,0.04113627016093524
12.849902153015137,10.676170243384117,1.7127700892728988,2.5061870908446253,1.7169420441417382,1.1119598142731888,-0.011547078401372797,0.16617420522634696,0.17068155465716062,0.011571555570741377,0.29488503915782616,-0.021536238166874888
12.870014429092407,10.710542086954698,1.7350412598810647,2.5059584585284376,1.7202308073133994,1.1150496962612984,-0.011316407677719964,0.1627225014807923,0.13841636921855777,0.01149521805069889,0.29417180471415083,-0.03566172218376629
12.889935970306396,10.745004586437176,1.757543683445922,2.505729736564577,1.7240857901475097,1.1219167990445327,-0.011204593674020033,0.15785207860911488,0.10577630703716362,0.01142147966602904,0.29465341937492395,0.0240807330386561
12.90997838973999,10.779517556438797,1.7800010333863179,2.505507923979387,1.7271955395535583,1.1237117052414107,-0.01097691674029789,0.15315090765464387,0.0738292718958119,0.01134591162937299,0.29324165332720575,-0.07058830238590996
12.9298837184906,10.79681672488004,1.7913589001753998,2.505395747166322,1.7292656405947242,1.1275201334141247,-0.010948600303584126,0.1504626781249113,0.04502042746063898,0.011274417534892006,0.2941436648971072,0.045100578495071986
12.950051069259644,10.831431956401314,1.8139164153320158,2.505179025183156,1.7322489094241709,1.1281372831576617,-0.010723842598938235,0.14788202341735857,0.016790612690145416,0.01120104232986881,0.29256331729271245,-0.07901738021973692
12.969944477081299,10.848787635591426,1.8253310121926203,2.5050697169242904,1.7346418270186552,1.1320747129003603,-0.010686661916102042,0.17017756058032668,0.02193253973891704,0.01113093230297589,0.29323476982957475,0.033572626843114683
12.98991870880127,10.918319802550393,1.8707956866268514,2.5046482938010746,1.7417197753537725,1.136824843329042,-0.01030985663683794,0.18369188740084622,0.024553676767821924,0.011054091020769187,0.29092672868656555,-0.11540205715045992
13.010020732879639,10.953191809549345,1.8935372286851828,2.5044443022778027,1.7455241195333848,1.1373354194618295,-0.01008955754506557,0.19665050320125674,0.026370964688126542,0.01097553518489776,0.2903079593467188,-0.030938466992336267
13.029940128326416,10.98811149176192,1.916338899509322,2.5042442501177593,1.7487232981629817,1.1389102789497867,-0.009876547069890522,0.21020731386159036,0.02828415348812105,0.010892284887871462,0.28958294626252856,-0.03625065420951312
13.049899816513062,11.023105750258091,1.9391146335967964,2.50404944040269,1.752259512298072,1.1391652679106323,-0.009640665187353516,0.22073130846276268,0.02597258966558068,0.010804675206949433,0.28859077032532676,-0.04960879686009001
13.069969892501831,11.05819576501783,1.9619029485063986,2.503858782125894,1.7567754899115837,1.139656464902992,-0.009425459007148133,0.23078927841491217,0.023045309562659096,0.010715721209765187,0.28728002817498055,-0.06553710751731057
13.089997291564941,11.093378080153302,1.9847004613436985,2.503672410093752,1.7614880163077826,1.1400830410677223,-0.009212045105160391,0.24038717933418258,0.01951214564726764,0.010625452282958836,0.2860621588390635,-0.060893466795852724
13.110004425048828,11.11091025157504,1.9960311171114038,2.5035840922614776,1.7618078400619126,1.1385247187861378,-0.009032165675909577,0.23920637172188658,0.005799196215391207,0.010528126404347832,0.2858689933497467,-0.009658274465840222
13.129913806915283,11.146171007863696,2.018783183497216,2.5034065664740854,1.7657751470324818,1.1377495546712,-0.00878865828195021,0.2319055367627542,-0.02613177410404312,0.010426142716629524,0.2844122911673028,-0.07283510912219349
13.150173902511597,11.19922777274218,2.0528933227674044,2.5031492124191,1.7721301800834943,1.136470821444339,-0.0084314688598942,0.22505285823212892,-0.056761913929275175,0.01031510426299486,0.282269798291622,-0.10712464378404007
13.170026063919067,11.234714940616714,2.075609386321516,2.5029826386345846,1.7765644670713074,1.1350361973199794,-0.008226281417640122,0.21841072769385636,-0.08656305207687878,0.01020355678671197,0.2810356293516514,-0.06170844699853184
13.189912557601929,11.27029246049271,2.098315218724959,2.5028219082264442,1.7810129992693453,1.1337398776052279,-0.00798074181981888,0.2118255200793841,-0.11479038857129342,0.010086067467544552,0.2797365663021796,-0.06495315247359024
13.209929943084717,11.305954656476217,2.120965215777025,2.5026643027583453,1.7851853078572348,1.1311683593114104,-0.007780197451609111,0.20543811466904507,-0.14223101387964462,0.009968329285413125,0.2779099077418592,-0.09133292801601911
13.229964017868042,11.323833598293698,2.132305424829885,2.502587869235951,1.7876822944521262,1.1305228279379844,-0.0076569524968592385,0.19997595556660583,-0.16960539422369153,0.00985009722232268,0.2779325432382742,0.001131774820750664
13.249948740005493,11.35962688372612,2.1548801750900473,2.5024366923154795,1.7916286070586778,1.1268635954403938,-0.007461134172564107,0.19468340208489998,-0.19618632833261657,0.009731710782988241,0.2753106374513008,-0.13109528934867054
13.270700931549072,11.413517394113564,2.1887169648931555,2.5022191535138,1.7986241418188578,1.1233898041865742,-0.0071277997458159,0.1891413628501113,-0.2195693709459855,0.009604123502281507,0.27319275329295456,-0.10589420791731197
13.289967775344849,11.449527344753506,2.2111393225789553,2.5020785098476592,1.8023530477104956,1.1187703071806463,-0.006936991494275461,0.1837789866927532,-0.24226665916192042,0.009476735895961779,0.27132257893330314,-0.0935087179825711
13.309932231903076,11.467583990438204,2.2223529495881453,2.5020105224859357,1.804840007070488,1.117218587348056,-0.006817298537748679,0.17994679858796686,-0.2641619585591877,0.009349465519812337,0.2713626169709622,0.0020019018829531277
13.329860210418701,11.503716530366011,2.2446430624758897,2.501876037937109,1.8084016048030793,1.1117219283347783,-0.006631579673638499,0.17623250225703296,-0.2853940073038344,0.009222467093877187,0.26871532363802153,-0.1323646666470335
13.350024938583374,11.521837193004613,2.2557921895281994,2.501811234891512,1.8109421828706596,1.1099832625419639,-0.006510267775595003,0.1748559021701335,-0.30619270038727403,0.009095398564099279,0.2685140086305955,-0.010065750371301974
13.369930267333984,11.558090917000014,2.2779292624519383,2.501682840161846,1.8144256899880686,1.103656883679769,-0.006329627590482673,0.17349789519915593,-0.32633666637275327,0.008968678871896257,0.26545420433543,-0.15299021475827512
13.389972448348999,11.612657471760947,2.311006785922449,2.501499644285101,1.8207975482141134,1.096216154611922,-0.006001751418165582,0.1701408772742335,-0.34274077036762557,0.008832634771103739,0.2627039479849316,-0.13751281752492073
13.409903526306152,11.667376082734918,2.343771926258453,2.501324904766359,1.8263813937657063,1.0867480422891889,-0.005699728096106806,0.16646347798742248,-0.35376508786022265,0.008690165571087642,0.25963146215753063,-0.15362429137004696
13.429921865463257,11.703936762988763,2.365435416616153,2.501212638786965,1.82967469601649,1.0795654095682172,-0.0055273415822399115,0.16288278056836988,-0.36444032595282444,0.008548643946062617,0.2579375692944019,-0.08469464315643549
13.449980974197388,11.703944559977852,2.365441489648434,2.5012133074171485,1.8298820800187003,1.079614830845742,-0.0055071864905083074,0.1588021162365738,-0.3748325744921534,0.00841236603479659,0.25865418970530474,0.035831020545140646
13.469842433929443,11.777293465246338,2.408337757110694,2.501001494714999,1.8368508065122224,1.0647454800961933,-0.005129730057337564,0.15461924692904683,-0.3827567432052071,0.00826609041871935,0.25186477470415136,-0.3394707500576688
13.489984273910522,11.814061132302749,2.42955560026859,2.5009005436406553,1.8399023513074662,1.0570132992702073,-0.004965860934478183,0.1505548797696272,-0.3904177192083571,0.008121023185712886,0.25138103674475687,-0.02418689796972462
13.509927749633789,11.83248163593925,2.4400880631291755,2.5008516591989047,1.841783542384816,1.0525020854546887,-0.004876501686904402,0.14839096978809807,-0.3971791129657065,0.007978705875072987,0.2500669954181074,-0.06570206633247366
13.529977321624756,11.869346842536627,2.4610582303821396,2.5007557154778826,1.844730025330724,1.0444929089960444,-0.0047183408494986655,0.14626336014007996,-0.4036984123665431,0.007837575621533087,0.2471800642140609,-0.14434656020232417
13.550023794174194,11.906291818622018,2.4818307015805114,2.5006635209017656,1.8481422725199532,1.0354723866525997,-0.004547801874527899,0.1435330611231549,-0.4037533360341555,0.0076952570641737,0.24500587138994767,-0.10870964120566207
13.5700101852417,11.943283191417747,2.5024593959493013,2.5005740944920265,1.8509860893911358,1.0273969313490765,-0.004395309212804307,0.1408577552904439,-0.4037890028079973,0.007554222984224994,0.24248357950448485,-0.1261145942731412
