t,x,y,z,vx,vy,vz,ax,ay,az,yaw,yaw_dot
3.14780855178833,-2.5087855430972892e-05,9.736805630614662e-06,2.0080159064408574,-0.003737327240044555,0.0014506335255869993,0.002383316641931694,-0.36857505836810295,0.14309073395454422,0.2352238560539605,0.031415926535897754,1.5707963267948966
3.167724847793579,-9.616182645770608e-05,3.793568522483093e-05,2.008061224875542,-0.010714322040638585,0.004249609565087882,0.0068299075091871105,-0.698028739436847,0.27990789319446985,0.4448697610013043,0.06283185307179551,1.5707963267948966
3.1876838207244873,-0.00016740768534172373,6.783539570270726e-05,2.0081587609610407,-0.017422100505883956,0.007034070195752982,0.012800733384835799,-1.0165830835114367,0.4105272288608931,0.6496160375063595,0.09424777960769326,1.5707963267948966
3.2076871395111084,-0.0007389503177491038,0.0002987444010307908,2.0085574669313724,-0.04069748547251502,0.016453312211126156,0.027693769562698884,-1.3061920837187135,0.5294767384373062,0.8367948474938702,0.12566370614359101,1.5707963267948966
3.227717399597168,-0.0003722756437627268,0.00015544361505720973,2.0085109937074175,-0.031485354013287274,0.012586257450977172,0.027114499902536806,-1.5505689435818495,0.5896806821698927,1.0077749670593306,0.15707963267948877,1.5707963267948966
3.2477099895477295,-0.0013271270570194562,0.0005287719741005853,2.009265424547548,-0.06473059439927407,0.024924243241638323,0.04884451334531212,-1.7698218929118026,0.6429832321649358,1.1625603579301818,0.18849555921538652,1.5707963267948966
3.2677345275878906,-0.0008605814216859915,0.0003692066273939986,2.0093500116968777,-0.048852334739568064,0.019232875476693535,0.04881659067371338,-1.8358780284960892,0.6759449705183705,1.3032778644575356,0.21991148575128427,1.5707963267948966
3.287754774093628,-0.002208607692588014,0.0008909964464491906,2.0105956309210806,-0.0861306415111545,0.033039102728430386,0.07616460873838767,-1.889988062866822,0.7038462397173325,1.4290672231779227,0.25132741228718203,1.5707963267948966
3.3077406883239746,-0.0026260993351555142,0.001176509406707254,2.0117456627562893,-0.08584827698778996,0.03636870700610583,0.08944406071667632,-2.165940542038511,0.8849942737681927,1.5147911244809018,0.2827433388230798,1.5707963267948966
3.3277971744537354,-0.005379280093802263,0.0023951980122550896,2.014788181372964,-0.12715905658004273,0.0560217215603169,0.12594498100079654,-2.0292319418120224,1.0022240189337768,1.5179263980305129,0.31415926535897754,1.5707963267948966
3.351097583770752,-0.00831930742651838,0.003723288138903087,2.017610629496157,-0.16639555094907763,0.07713790491794463,0.156293958482751,-1.8947937977190223,1.107413310091801,1.5161667996090866,0.3455751918948753,1.5707963267948966
3.3676743507385254,-0.011411966903974799,0.004981624789797603,2.020830362176215,-0.18894475731016414,0.08413891269688403,0.1808562394816513,-1.658528055438027,0.8486621274056941,1.3806890655785293,0.37699111843077304,1.5707963267948966
3.3877222537994385,-0.015507324016351338,0.006817701640542606,2.0247148743268433,-0.21983713132103008,0.09866052002396938,0.20716209573839894,-1.4323777777706657,0.6061804780900706,1.250823414098912,0.4084070449666708,1.5707963267948966
3.40767502784729,-0.02336136786965317,0.009979852552856907,2.0317116996941187,-0.28002085803815596,0.11799173001221129,0.2503127769082585,-1.4938139635343672,0.5182265400245165,1.228296304510743,0.43982297150256855,1.5707963267948966
3.4277937412261963,-0.029264066304014142,0.012437665652684636,2.036961971403026,-0.3104154364788343,0.12750948793202496,0.27462992106038175,-1.5437546200066825,0.43419779776491413,1.2029557346931212,0.4712388980384663,1.5707963267948966
3.4477922916412354,-0.03298673595344771,0.014139014488598575,2.0398800078479473,-0.3428916497301512,0.14117689383778312,0.2886705759354606,-1.7639855680601766,0.1325705269163556,1.0718792550371203,0.5026548245743641,1.5707963267948966
3.467662811279297,-0.04021079993601831,0.01697004432116134,2.0458593511573664,-0.3801659350565945,0.1409928535576491,0.3088464063311925,-1.9593521815038908,-0.1474086541785538,0.9466727856994439,0.5340707511102618,1.5707963267948966
3.4877617359161377,-0.048454378418501275,0.020878089263496775,2.0525571342723716,-0.4228246391176455,0.16176076684172874,0.33824699423486915,-1.8439112866165706,-0.8107984136422545,1.1358074109162475,0.5654866776461596,1.5707963267948966
3.5095067024230957,-0.06188043058787724,0.026627204048998352,2.0633818802315558,-0.47399628242829367,0.1703659686018269,0.379744483375624,-1.6009007728670404,-1.3153947117278104,1.5297233816861584,0.5969026041820573,1.5707963267948966
3.5277597904205322,-0.0716647641792797,0.029739889727135795,2.071307125629208,-0.503655535431115,0.13935913461519697,0.4139702045062353,-1.3664357901242494,-1.7784512644206723,1.8867832585905848,0.5654866776461596,-1.5707963267948966
3.547899007797241,-0.07702580656146936,0.03266709381225848,2.0753870163014674,-0.5263737132299251,0.1724065611229954,0.42817190389171067,-1.469524791806575,-1.2540485601656952,1.9013334251696072,0.571559347753964,0.3036335053902217
3.5676887035369873,-0.0941919043824999,0.03876558706620452,2.088584350870598,-0.5920080388468858,0.17729963136439555,0.4710472379527586,-1.6152807062295775,-0.9646345644788488,1.8715541760911265,0.5401434212180662,-1.5707963267948966
3.587777853012085,-0.10636386533283486,0.04213695420408599,2.0983773598182007,-0.6256092826323983,0.16073581787746138,0.5081370370921133,-1.7416573514279312,-0.6950063085796998,1.8365707337484194,0.5214507248095215,-0.9346348204272381
3.607684850692749,-0.12002950887574125,0.045682618898712155,2.1085081980084337,-0.6847571596978425,0.1508351832428342,0.5327568889560584,-2.434244689605738,-1.1341770916019869,1.4978236457785996,0.5345291535586925,0.6539214374585489
3.627732515335083,-0.1342542621592768,0.04844506912947846,2.1194413604044073,-0.739800215806795,0.12406951812320602,0.5594994881043499,-3.0588892619193273,-1.5362887798334153,1.1798562193680828,0.5031132270227943,-1.5707963267948966
3.647808790206909,-0.1414841619644656,0.04944112255644588,2.125221988927647,-0.7610707309558946,0.1027692290992871,0.5758654531282889,-3.2439602148740616,-1.7598045635502455,1.2204790497316567,0.4716973004868965,-1.5707963267948966
3.6676809787750244,-0.16360734492159557,0.05225760163194413,2.142898118120548,-0.8198877341408858,0.07036592460272657,0.6244342548379104,-3.584112725995109,-1.5974259385370568,1.2222354489417326,0.44028137395099876,-1.5707963267948966
3.6877708435058594,-0.18074239787867571,0.053355856044041715,2.155631047214628,-0.8946052301010899,0.03997392208086133,0.6488432465528581,-3.880433704099918,-1.4431012129304892,1.2176160330583772,0.408865447415101,-1.5707963267948966
3.7082715034484863,-0.1974005109876259,0.05457161633554588,2.169431230520249,-0.9211982806435326,0.020301549238940165,0.6854037228136615,-3.720909781427912,-2.215109599550083,0.9852433451445676,0.37744952087920325,-1.5707963267948966
3.7277493476867676,-0.216557451501953,0.054486448217537835,2.1833214836491512,-0.9939261097000809,-0.031173147543670777,0.7028883276181649,-3.550019630176151,-2.921572961429517,0.7652602429948617,0.3460335943433055,-1.5707963267948966
3.7477831840515137,-0.22586767517152065,0.05443903228206505,2.1907490519964834,-1.004300918426039,-0.053937199769604455,0.7192020847950967,-3.0931585852741885,-3.6637768698321813,0.5699180696085078,0.31461766780740774,-1.5707963267948966
3.7676773071289062,-0.24654245542268693,0.052581621813147045,2.205234595299509,-1.061693380640949,-0.1340407758462857,0.7287370517136506,-2.6480397933803177,-4.3348864385197645,0.38535608427449625,0.28320174127151,-1.5707963267948966
3.7878477573394775,-0.25755547996866723,0.052614080013326264,2.2130626562035065,-1.0946314397544192,-0.13618676730917903,0.7458674450038663,-2.3275519678784384,-4.926674363534478,0.22154611022362714,0.25178581473561223,-1.5707963267948966
3.8076517581939697,-0.2798924634355662,0.04886873493834373,2.228013865278403,-1.1380126655174179,-0.24010930198105507,0.7487387759227471,-2.011281070630264,-5.455170988019641,0.06713673941157756,0.22036988819971448,-1.5707963267948966
3.8277852535247803,-0.3177746209345198,0.044684127639851114,2.2518132820884498,-1.2565815193366534,-0.2875096266629816,0.7784539108858787,-1.2668231810851844,-6.132721897829951,-0.07284005009553551,0.18895396166381673,-1.5707963267948966
3.847990036010742,-0.34311184552207896,0.0376656398961454,2.2673588825367506,-1.2747830714797759,-0.4163705261467028,0.7756675938387592,-0.5594502827736104,-6.742165095652066,-0.20440517454722104,0.15753803512791897,-1.5707963267948966
3.8677022457122803,-0.3713618201995565,0.03167821516692725,2.283652302093795,-1.3516118656959442,-0.4624231815440434,0.7909155199420761,-0.19558930630384458,-7.165383894383281,-0.3246383679608408,0.12612210859202122,-1.5707963267948966
3.8878064155578613,-0.39840944437122994,0.02097128515884195,2.2993980527533044,-1.3519727392961878,-0.6094929310785357,0.7832842544419739,0.15775561521082843,-7.532343179866319,-0.437228704405717,0.09470618205612347,-1.5707963267948966
3.907707452774048,-0.4287453591489454,0.010728729214271105,2.3157407953809543,-1.4254567395199087,-0.6742856654446009,0.7943839759066804,0.9270034234787138,-7.404765861820647,-0.34939156959130374,0.06329025552022571,-1.5707963267948966
3.927675247192383,-0.45836820074989804,-0.003305481704484827,2.3318042478749827,-1.445364132032527,-0.7905069522899514,0.7944727367831593,1.5933267060333343,-7.196613534343846,-0.4679662461168464,0.03187432898432796,-1.5707963267948966
3.947794198989868,-0.4869144218217583,-0.020540754385258143,2.347592600088005,-1.4071715080886211,-0.9323057886287472,0.7839935321927234,2.219281624936275,-6.982260088490953,-0.5786549586250734,0.0004584024484302063,-1.5707963267948966
3.9677228927612305,-0.5187121674663724,-0.03975934409417731,2.363685878238491,-1.4654857567035455,-1.0559056617804796,0.7846868952839651,2.301198737891705,-6.979454912420214,-0.6797167164823883,-0.030957524087467547,-1.5707963267948966
3.987689971923828,-0.5640843451567539,-0.07499199810963851,2.3871941970675956,-1.45911838330332,-1.2764281876168844,0.770411696378652,2.962427279726827,-6.794686955412269,-0.8677813713188721,-0.0623734506233653,-1.5707963267948966
4.007768630981445,-0.5926326061729655,-0.10186645706673803,2.4024170319021723,-1.3936671268540761,-1.4103537816552112,0.7512910715389641,3.5746242878476697,-6.595518201181445,-1.0420016140206088,-0.09378937715926305,-1.5707963267948966
4.027705192565918,-0.6083648470515138,-0.11709103981565434,2.410139941849387,-1.4121707992618482,-1.4994726962279776,0.7480485907022569,3.7599431572925988,-6.602091010635485,-1.0712877104615146,-0.1252053036951608,-1.5707963267948966
4.047811031341553,-0.6358444973040109,-0.14839994638140602,2.4248848514777124,-1.3352148978573535,-1.631346692538902,0.7263545645864741,3.9337451208457743,-6.580725285673599,-1.097631344333687,-0.15662123023105856,-1.5707963267948966
4.067836761474609,-0.6648644708787019,-0.1838487038658969,2.43957447616393,-1.330992736997566,-1.7980950763906118,0.7142805808725436,4.013783438482505,-6.342459057517715,-0.9563497851486892,-0.18803715676695631,-1.5707963267948966
4.087730169296265,-0.7042949375732431,-0.24162609249036743,2.4605171764479077,-1.2450744528827773,-2.014476129320235,0.6823700837450538,4.196043991585151,-6.060479892629189,-1.0944165887411832,-0.21945308330285407,-1.5707963267948966
4.1077494621276855,-0.7283457950440123,-0.28310860702086016,2.4739370471375777,-1.1594521333738672,-2.1328151897357195,0.659193754220252,4.363797756756564,-5.772445386927049,-1.2213904754954865,-0.2508690098387518,-1.5707963267948966
4.127773284912109,-0.7405071404015283,-0.305859817480624,2.480356228426435,-1.1365273981011639,-2.2201657078205486,0.6429385590789468,4.478996564613933,-5.413656704996305,-1.3228569196365223,-0.2822849363746496,-1.5707963267948966
4.147796392440796,-0.7623347660394644,-0.3513219660237508,2.4929441249703417,-1.04588817590614,-2.324854755312384,0.6155435101766987,4.583097858336264,-5.055342411605545,-1.4151363737811646,-0.31370086291054733,-1.5707963267948966
4.167761325836182,-0.7832638609663509,-0.4012493406337679,2.5049487617540076,-0.9768520488328464,-2.4850010386917156,0.5860410879738159,4.529631417713085,-4.753285280748368,-1.4827844932792367,-0.3451167894464451,-1.5707963267948966
4.187691688537598,-0.8107598423456474,-0.47968278865821007,2.521824921486853,-0.8469057838806152,-2.6718162928719615,0.5433864301574134,4.489199962464737,-4.080653512113896,-1.1024935691353779,-0.37653271598234284,-1.5707963267948966
4.207724571228027,-0.8268029312481722,-0.533891674716811,2.532496097806065,-0.7575456987983865,-2.746914790647998,0.5249053895103446,4.446423370720772,-3.4333899381074997,-0.7502262810775404,-0.4079486425182406,-1.5707963267948966
4.22763466835022,-0.8407290265716476,-0.5923939306527026,2.5419179986707623,-0.658998788371991,-2.878281311253983,0.4824800770703418,4.421651806489821,-2.101410064377841,-0.8587480409163473,-0.43936456905413834,-1.5707963267948966
4.247753858566284,-0.8530264264204802,-0.6502953341805277,2.551389058886457,-0.5708306319125859,-2.907704454699247,0.46429364107921994,4.394821311530163,-0.8550009991077165,-0.9584427383526827,-0.4707804955900361,-1.5707963267948966
4.2677531242370605,-0.8527496400860427,-0.6515950871716906,2.5507021544923347,-0.562104869790412,-2.9357994753706724,0.44006411514013366,4.360271098608439,0.313733704818153,-1.0353331954669829,-0.5021964221259339,-1.5707963267948966
4.287744522094727,-0.870982719956431,-0.7758796493969352,2.5658448624718093,-0.3698972279039399,-3.0908938920821254,0.3575482861773815,4.225096044486081,1.3997323340114602,-1.0837223267275444,-0.5336123486618316,-1.5707963267948966
4.307682275772095,-0.877544240685566,-0.8373488255816751,2.572776130693963,-0.28667779334215854,-3.0526459403426194,0.33543536507778304,4.09820731446779,2.413095935484806,-1.126676048080752,-0.532837676575034,0.038733604339880046
4.327815055847168,-0.8797778735149453,-0.8719396032496591,2.574927668795008,-0.23947110899703927,-3.1390972828279757,0.2911568195044369,3.381435659405123,3.3895793222422674,-1.1037815573004024,-0.5221019810086234,0.5367847783205315
4.3485658168792725,-0.8847280009707362,-0.9693407132155039,2.58154992521825,-0.11889093814429573,-3.1720746111884517,0.20951897716579326,3.227801980874381,3.3910773108144823,-1.1080355551882186,-0.4936896136332112,1.4206183687706098
4.367735147476196,-0.8864697427676125,-1.0321037577670424,2.58551854981698,-0.05574499380385831,-3.1042160730474033,0.18733831491549988,3.089268106587713,3.3952069546420427,-1.1095872926078951,-0.4916968050502062,0.09964042915024951
4.387777090072632,-0.8859600357074745,-1.066638808319388,2.5856762139889673,0.007632152869148552,-3.174005770774756,0.13396898633172472,3.5838298133691824,3.1367263413337962,-1.0523466892833462,-0.48132567356243205,0.5185565743887066
4.407728672027588,-0.8850596141272146,-1.1295079674501929,2.588148859947843,0.08392843012869176,-3.11371572877394,0.11348105610127998,4.039372927688886,2.8950436240593094,-0.9967123941348613,-0.4629109963212916,0.9207338620570216
4.427766799926758,-0.87959300504525,-1.1928388150054579,2.5921311896722004,0.2411566604992275,-3.0861507696073436,0.15258669066073066,4.12866965662897,2.5234872248354225,-0.7472500225093813,-0.4465653560965537,0.8172820112368973
4.447757005691528,-0.8725935926531884,-1.252573565747304,2.5965844563311276,0.37032780217163735,-2.9859186296628675,0.18925373695512135,4.265543649034073,2.246669187562175,-0.7428651803006111,-0.43096272456848306,0.780131576403531
4.467779636383057,-0.8643256853685011,-1.3118599030485378,2.6002213107613734,0.45686056316486445,-2.9435610350014305,0.17445033054710965,4.384842568828811,1.9928789694919322,-0.73727850740396,-0.41547806877109617,0.7742327898693446
4.487814664840698,-0.8565978956489222,-1.3361518959319758,2.604077185991433,0.5854670408108532,-2.7760131366391945,0.2254429387954293,4.278781323088472,1.8754706289968666,-0.744699093672144,-0.40523370107826784,0.5122183846414163
4.507620096206665,-0.8334610430557976,-1.4117838717377962,2.6106386287786516,0.8179532519337896,-2.5213127007947964,0.20175024334484135,4.078927257140041,2.209179505669707,-0.7471741915661653,-0.3738177745423701,1.5707963267948966
4.527842283248901,-0.8162992801914966,-1.4617472062650807,2.614524117657827,0.8975725684741555,-2.4739857230832776,0.18679596095111142,3.883786812986086,2.519696944523132,-0.7479801337312867,-0.35255986137133943,1.0628956585515326
4.547900438308716,-0.7914623212774303,-1.5009324413478788,2.614036824007374,1.126549528124964,-2.184390889114965,0.06081652301033359,3.871423103349722,2.5094457446820306,-0.7506348542709468,-0.3211439348354417,1.5707963267948966
4.567723751068115,-0.7530923705924246,-1.560741415985878,2.6109624466164947,1.319082648880074,-1.9808614947390002,-0.09255091148873643,3.7609616699997015,2.562734644016638,-0.680022705127859,-0.2897280082995439,1.5707963267948966
4.587859153747559,-0.7259659927364841,-1.5998428162902445,2.608979979380146,1.3931800992133598,-1.9291188379913131,-0.1054705416048499,3.648452506045139,2.6106462414516582,-0.6124405999444614,-0.2623589221362468,1.368454308164857
4.607658863067627,-0.7105943822282226,-1.6161025996832084,2.603480315150762,1.4623258914515638,-1.8231294983367983,-0.23478823662638706,3.5538000787110122,2.639805073850995,-0.5187970451893816,-0.25430664000575565,0.402614106524557
4.627795457839966,-0.6806435495513252,-1.6520354316063433,2.5986867947997805,1.5324329294595056,-1.7700662551784223,-0.2442675485538745,3.45646826688583,2.666037994164975,-0.4299204279661141,-0.2320223082161177,1.1142165894818978
4.6477882862091064,-0.648825455489044,-1.6851924154599038,2.589571956544749,1.6077977890195045,-1.6816946873473768,-0.3474777944672225,3.109444959663952,2.520757815602325,-0.323385253437305,-0.2154096459434447,0.8306331136336498
4.66783595085144,-0.6160699448481174,-1.718331336747644,2.5825645279570195,1.66664977549872,-1.6326480665321932,-0.3529297538545249,2.7783900857170174,2.3855664224014284,-0.22278998037685813,-0.2047594309776688,0.5325107482887947
4.687801122665405,-0.5994804677511033,-1.735016743524879,2.5783818484087675,1.6843984772164236,-1.6252332429854126,-0.37015217982157655,2.355198509612799,2.2631351232659527,-0.12871923880166009,-0.20240774964723407,0.11758406652173647
4.707648277282715,-0.529949079143196,-1.799287388658144,2.563745766046473,1.783227421868809,-1.5604369855835776,-0.3660896904860964,2.0235081951704057,2.2473230958639245,-0.0414564746111069,-0.17099182311133632,1.5707963267948966
4.727797746658325,-0.4939011560763651,-1.830047644486249,2.5564212341140338,1.820511491474866,-1.515636428457816,-0.3660901954917459,1.707485243535865,2.232973086639441,0.04053766406772563,-0.16445434914066626,0.326873698533503
4.749669075012207,-0.47528810453402087,-1.8452876570032317,2.5532403757294513,1.8452231309541904,-1.4975868268837624,-0.35117465358332445,1.4929383117860393,2.2797356873546706,0.10970953286648266,-0.16256762530181224,0.09433619194270104
4.767832279205322,-0.43809890508893534,-1.8747805010997542,2.5462432144892464,1.8730117378257154,-1.4515531516935565,-0.34832561991167765,1.2874129969425556,2.323066303710618,0.17446636442744884,-0.1443538482544744,0.9106888523668921
4.78778862953186,-0.3995020484384058,-1.903436888642283,2.540215261398722,1.9180233177972181,-1.4087177550913732,-0.3208511836224678,1.0554605451554748,2.3301975724518322,0.22593700949704137,-0.13827950303030923,0.30371726120825837
4.807635307312012,-0.3411996620646121,-1.945350547259415,2.531582968183654,1.9568534336141508,-1.3604607675847642,-0.28773849808533974,1.0200112371906753,2.301458093919739,0.2662220603125053,-0.12183312176501948,0.8223190632644872
4.82792329788208,-0.3018609492745033,-1.9721013572068222,2.525883981922777,1.97690003359392,-1.3147140458922835,-0.28203557127725887,0.9846680101957848,2.273312334160622,0.3035902289020259,-0.11244169350967859,0.4695714127670447
4.84792947769165,-0.2822395518476682,-1.986411740205211,2.5241818744634346,1.9794273471642265,-1.3295249763077668,-0.24701844269726453,0.9042634400494292,2.2393790852954814,0.32786853288747736,-0.12098047470276496,-0.4269390596543188
4.867676734924316,-0.24247531957161123,-2.0125565936759306,2.5193085957785915,1.9967406931753868,-1.2850713202620014,-0.2402352810264988,0.8277059884104204,2.2060941519874047,0.3501127945172548,-0.10375256123797172,0.8613956732396622
4.887799978256226,-0.22302060443704141,-2.0267231356864985,2.5180845642422702,1.9881759698898651,-1.3031344630925619,-0.20334592834696077,0.7710497386724198,2.267840958135843,0.3604647088225072,-0.11362143276861847,-0.4934435765323375
4.907599449157715,-0.14391476346091545,-2.0789623084207354,2.5120144851234634,1.9921917358126164,-1.2593695399307563,-0.14467759191825613,0.7187906949430729,2.3334754844370456,0.3568282954042326,-0.09047893347492053,1.157124964684897
4.9277565479278564,-0.10393054963103054,-2.103678945910835,2.509192038507304,2.00606242766838,-1.2120965161633346,-0.13758038586523685,0.668624239530127,2.3927859773024087,0.3528336550600061,-0.0848738397410651,0.2802546866927713
4.947744607925415,-0.0648372970074384,-2.1291638053244957,2.5082069159483007,1.990074648782808,-1.2070605300872495,-0.08850209559938615,0.6326400174623937,2.4356522576302293,0.3370677093197434,-0.08657436634746318,-0.08502633031990392
4.967628002166748,-0.024911621224268758,-2.152815280307177,2.5065032579832027,2.0023765602615105,-1.1579608598707747,-0.08191482539178688,0.5977290433202864,2.4734868989425394,0.3217302737017438,-0.0727804624837618,0.6896951931850692
4.9878222942352295,-0.025361596976983394,-2.1534921660206847,2.507102391977434,1.9870765953592622,-1.1800271060098293,-0.06221907875930395,0.5878099084663128,2.5179386192682545,0.30289239774299964,-0.08597726631705704,-0.6598401916647623
5.0076212882995605,0.053359530563258276,-2.2006435340787722,2.5063858173904476,1.9792932016817264,-1.127871882927311,-0.012511528492056567,0.574522308377883,2.5817593995948074,0.2738739891879408,-0.06111333595720003,1.2431965179928506
5.0278778076171875,0.09305942439435347,-2.2226807008081493,2.506188495488641,1.9906526348171167,-1.075654354112852,-0.007312840434217395,0.5614583373030878,2.6388929741819886,0.2462199058157188,-0.0553652037520882,0.28740661025559167
5.047832489013672,0.11210020313222226,-2.234546891699286,2.5070076754338424,1.9705562404800252,-1.0842645410157798,0.019833305964676168,0.5488462271120101,2.6722307330759465,0.2147772199905876,-0.06391036055226618,-0.4272578400088989
5.067638874053955,0.15162028272979394,-2.2556957525828083,2.5074452820345816,1.9814114310889483,-1.030526279254986,0.023827943760288232,0.5367596093536819,2.7008132223649706,0.18495354541181463,-0.045760303184002815,0.9075028684131681
5.087857723236084,0.17057465569644037,-2.2670250405569035,2.50850275540458,1.9614943743898605,-1.0360654995223797,0.048333265723358956,0.5361168512956394,2.7232768669306258,0.1522785069290877,-0.05503381161948395,-0.46367542177405685
5.107632637023926,0.2481996474602419,-2.3077738750125985,2.5116563117145203,1.951528221053534,-0.9637172086784495,0.08108867780411148,0.5295921854956783,2.6918456309559935,0.1140268580151371,-0.028491992960521628,1.3270909329481162
5.127715587615967,0.28733569303497325,-2.3265119647121892,2.5132984523495296,1.9620544381248974,-0.9101978041412846,0.08300531173584076,0.5230228520972063,2.6600331456523105,0.07800384360609322,-0.022787091860610342,0.2852450549955643
5.147807836532593,0.30623086918537173,-2.336218314718124,2.5147195445309416,1.9461362910122508,-0.9040616155078941,0.1000404804504716,0.5458103346908603,2.6894977792921058,0.041791382547701504,-0.027865417036125883,-0.25391625877577706
5.167806625366211,0.34526421945324937,-2.353759901299239,2.5167264101962203,1.9572709181101207,-0.850013317968199,0.10053281733160478,0.5674653847560502,2.714617026498692,0.0078099140691751745,-0.006227836974533663,1.081879003079611
5.187798023223877,0.3641688140007959,-2.362705938453443,2.518259255829432,1.943377359639728,-0.8390887854720671,0.11521730035293867,0.5993771842807181,2.743815257535034,-0.025962852019408116,-0.017747820927145774,-0.5759991976306056
5.207662105560303,0.44133963283736877,-2.394890014775895,2.523562765329965,1.9419515149822144,-0.7490938944926456,0.13139525098804652,0.6627637992596456,2.786673500991898,-0.061652622865523504,0.01366810560875198,1.5707963267948966
5.227736234664917,0.4803152615759839,-2.409311978321085,2.5261760806508455,1.955810675364488,-0.6929780386173483,0.12982529883049948,0.722559972993965,2.824002277424585,-0.09494823791613793,0.020282767505937382,0.33073309485927016
5.248105764389038,0.4992595160892777,-2.4165652138916136,2.527835369457188,1.9448525782810768,-0.6778517935778348,0.1389109706363924,0.7633096176971566,2.828175650566688,-0.12661454326127813,0.017677020717041803,-0.130287339444779
5.2677202224731445,0.538311822823938,-2.429556507708221,2.5305862684005986,1.9605057246666329,-0.6212750525174534,0.1360809127566057,0.8015993201341896,2.828937915880397,-0.1560187284431006,0.0393890050582999,1.0855992170629047
5.28777551651001,0.5766752304379711,-2.4420167269835757,2.533780237623676,1.9516588953810636,-0.5792134565440977,0.14510001530724528,0.8068603747539757,2.825386273814824,-0.18455053811131386,0.039587858576932256,0.009942675931617906
5.307655096054077,0.6350339367599165,-2.458366167512729,2.538314508670848,1.9602425922109408,-0.5012861237291032,0.1467686447407364,0.7991225504125842,2.813239787941736,-0.21175660696603885,0.06276894895228535,1.1590545187676549
5.327794551849365,0.6743981359896886,-2.46783018598964,2.541205824435989,1.976154107405873,-0.44516512183336754,0.14227941567034083,0.792155087212654,2.7984217475236166,-0.2368123204763767,0.0730830647846088,0.5157057916161722
5.347895383834839,0.6937848513886611,-2.472276720275267,2.5428168847819106,1.9724317260370563,-0.42096059979971473,0.14531196466997953,0.78216053133399,2.7845363402390317,-0.2595242168551509,0.0725339477980298,-0.027455849328950066
5.367861747741699,0.7333892295814799,-2.480140016501481,2.545669803479812,1.9879713100514662,-0.3654196797172212,0.13991073421890166,0.7717258381780369,2.7693398028987084,-0.2802763104360937,0.09306678723251816,1.026641971724418
5.387795686721802,0.7729040834852471,-2.4869612675958144,2.5486630836329764,1.9952273612254816,-0.3135360755579131,0.1402493287762749,0.9323416522166752,2.520073752196577,-0.2988275810029618,0.09881493885050618,0.28740758089940144
5.407615900039673,0.8130051535408809,-2.492744045875811,2.55140715722325,2.015371633263896,-0.26553632039455477,0.13410212355723752,1.0799437622786148,2.281699924291076,-0.315600355252091,0.11027663449590719,0.5730847822700502
5.427795171737671,0.8329484666254464,-2.4951250767564255,2.552847116526069,2.019485514477242,-0.23949466144369305,0.1339856080497477,1.2125884739533086,2.0542017155914025,-0.3300980893068979,0.11501517726478294,0.23692713844378765
5.447848558425903,0.8935605997246844,-2.5007441281150014,2.556778957610134,2.0421264717454455,-0.16117085947995535,0.12555934373806402,1.3657693421412547,1.8009898525486898,-0.34204320273818517,0.13725561567074074,1.1120219202978898
5.4678261280059814,0.9346857819342884,-2.503623434070863,2.559221012573593,2.070854979130562,-0.12755100486123988,0.1186111886530956,1.5047444534803545,1.5636032445743537,-0.3525330462750363,0.13808365078203622,0.04140175556477388
5.487854480743408,0.975481125991835,-2.5045614760834916,2.5614888564822365,2.07835029944379,-0.06412726058074428,0.11040607718831869,1.6009168913522474,1.4173432007258029,-0.3596623758868905,0.15943729215267632,1.0676820685320054
5.507607698440552,1.0379342829649558,-2.504874354418905,2.5645666284092963,2.10934774716745,0.007129797883087621,0.09746590565859947,1.645451950095462,1.5656703031959895,-0.3636540641277422,0.17304905709862828,0.6805882472975977
5.52772068977356,1.0804528560303752,-2.504409305026161,2.56644300031909,2.1426287089495673,0.03983174949631615,0.0901613473619729,1.6812010527498862,1.7026572119303223,-0.3666359484921219,0.18035370207780366,0.36523224895876893
5.547650575637817,1.1229903002051684,-2.5024589942377755,2.5680853533606784,2.1595873243650616,0.09251517096572327,0.08086861006766219,1.5407036265553302,1.7752727019206438,-0.36671437510245286,0.1919303064637874,0.5788302192991868
5.5677125453948975,1.1664810704716535,-2.500249117225324,2.569629416499494,2.189037977982733,0.12869318955891199,0.07354003370944605,1.4051850351626543,1.8414731127881396,-0.3660158172138237,0.19694248055071117,0.2506087043461891
5.587833642959595,1.1663683453878129,-2.5002238724128736,2.5696255644294017,2.1838851909661714,0.13015201386851943,0.07344192956779937,1.285011237902358,1.9017639456885247,-0.36471131158565606,0.19576676309800067,-0.05878587263552504
5.607636451721191,1.2551720281959162,-2.493852182895968,2.5722555224822137,2.245405485816288,0.1968106255056613,0.058378480469625606,1.1571364200223617,1.870854211773223,-0.36048273288541627,0.21524422464813187,0.9738730775065596
5.6278088092803955,1.3003033048445674,-2.489543918840058,2.573351302839617,2.267313530206955,0.23390886014025258,0.051215334595091394,1.0345402604696508,1.8387790326027673,-0.3557492437621629,0.22130791609920086,0.3031845725534499
5.647990942001343,1.3234334781866492,-2.4872962606858007,2.573803766805158,2.2883666399690066,0.24701401781247997,0.0464906994019483,0.9154786506060183,1.7995858358349737,-0.34987979364090793,0.22012334734871564,-0.059228437524261324
5.667720079421997,1.3693762172143755,-2.481998695645516,2.5746640156066216,2.3055268809122405,0.28261054824091664,0.039555036669828764,0.8013626749661587,1.760004907838386,-0.3436232778832463,0.23220397851790153,0.6040315584592948
5.687775611877441,1.4165076558160303,-2.4759936520060983,2.5752967584115485,2.3419506521373328,0.3186999756569514,0.030466137679326332,0.6496902863986115,1.809905265724757,-0.33539766605531623,0.23612825488180222,0.19621381819503458
5.707662343978882,1.4638226190701382,-2.4692391451638427,2.575800427156929,2.3655717627146537,0.35574401765683866,0.022544127933497287,0.5263941735921348,1.8506967547346076,-0.32617317993215866,0.24318410742162344,0.35279262699106084
5.727745294570923,1.511231416797345,-2.4617516721490547,2.5761866971305194,2.374917194708337,0.39312157928458397,0.016114085506273634,0.4091476573917987,1.886187744032875,-0.3168085195160557,0.2531006939409757,0.49582932596761164
5.747837066650391,1.5598292581924553,-2.453678149321865,2.576354780465325,2.4076358698533182,0.4260212986637594,0.007664120748718525,0.2839631693861221,1.8805826255020806,-0.3059257964235679,0.2566220970999171,0.17607015794707248
5.7677600383758545,1.6080307435030616,-2.4447821043463223,2.576447603416682,2.412116715524255,0.4635562950872969,0.0016544592015891265,0.16517736917037895,1.8725127976417,-0.29504045938061574,0.2676258894108363,0.5501896155459596
5.787884950637817,1.6573728212521657,-2.435496246870935,2.576358150436501,2.4413450112517845,0.4909473845349801,-0.0056901970890713156,0.07540800851779106,1.7446576364462856,-0.2830577923189371,0.2693193937986602,0.08467521939119482
5.807718992233276,1.7312994468648963,-2.420099891935073,2.5760237474496352,2.461120334781325,0.5401237049057876,-0.015113877747835435,-0.03238782830555754,1.7155686868506073,-0.26987432549100754,0.28079375940469253,0.5737182803016161
5.827959060668945,1.7805084618148588,-2.4089562565888314,2.5756683637266344,2.4594399407674454,0.5741419950085792,-0.020381230284189256,-0.13475536411536176,1.68621864054345,-0.2568950657107274,0.288920901553944,0.4063571074625738
5.847883224487305,1.830476862723262,-2.397109347623805,2.5751502332172804,2.475978751157887,0.6087078585507406,-0.02688948766467697,-0.21237336920374034,1.6736638265125925,-0.24322379524668974,0.294152569842669,0.26158341443625055
5.8677144050598145,1.8799489928628255,-2.384601300184102,2.5745646959992365,2.470989119188049,0.6420546707763007,-0.03161960439136008,-0.2859178391085953,1.6609995057307552,-0.229834855296383,0.30387104746584725,0.4859238811589117
5.887826204299927,1.905079274221429,-2.378052472911909,2.574206806015978,2.4799034220460268,0.6597288860308288,-0.03462316125924004,-0.33030560240118645,1.6442460140742168,-0.21674533199828408,0.30407740476183154,0.01031786479921415
5.907618999481201,1.979699908708858,-2.357519673098345,2.573053070124653,2.480760740955157,0.7084023851498377,-0.04146336414526143,-0.27854754546416943,1.574810363614641,-0.20299822591583436,0.31695597701511335,0.6439286126640908
5.9278035163879395,2.0292625818542933,-2.3430411053978704,2.572184101621614,2.47566032439586,0.739235358641182,-0.045388864185887355,-0.23241975689969857,1.5091010959956563,-0.18961157894090855,0.3245120942453932,0.3778058615139912
5.948189735412598,2.0789375299931137,-2.3279487787760216,2.5712429037941327,2.475224748937073,0.7704771779674008,-0.04892860486433536,-0.22914424898303326,1.587348030802813,-0.17630263794047085,0.33080809061876426,0.3147998186685541
5.967740058898926,2.1283963401951342,-2.3122168598301873,2.5702299392717727,2.4706622580203335,0.8029548976678577,-0.052324759627280316,-0.22734745425181607,1.6594048688169933,-0.16337624421021124,0.3402864961029848,0.473920274211026
5.987789869308472,2.1529989303793684,-2.304126346683139,2.5697079469339394,2.4654698214495308,0.8175900095432614,-0.053553271476977325,-0.23572210977525318,1.5220900021859034,-0.15118439714867715,0.34189932906863296,0.08064164828240905
6.00761604309082,2.2266949352872163,-2.278976265439755,2.5680483101039564,2.4534664521904026,0.8610891020522695,-0.057540001632209826,-0.2663281045265268,1.4392953687912724,-0.138821427427218,0.35492260723620905,0.6511639083788046
6.0277509689331055,2.2757089846605916,-2.261471966573922,2.5668705502349387,2.4478382326101187,0.8890765927453103,-0.06019608960626323,-0.29640347788033183,1.3600365409898274,-0.12685264363448623,0.36259631315654905,0.3836852960170001
6.047794342041016,2.3243656696510033,-2.243331650343522,2.565661333051506,2.435275917561638,0.9179785320896534,-0.06218224578239934,-0.3873143494123529,1.2481436236187005,-0.115197236886403,0.3708553352511039,0.41295110472774343
6.067795753479004,2.372987916175245,-2.2247296225312807,2.5643954059065366,2.4266624428087216,0.9418704112476132,-0.06437293541544703,-0.47320341729796,1.141990107192936,-0.10393715543761835,0.37866868174393087,0.39066732464134724
6.087760925292969,2.397142797249542,-2.2150736072370463,2.5637480819723844,2.418809713852917,0.957482149031386,-0.06528285593443821,-0.5603343117257051,1.0153256049596817,-0.09334553140402815,0.38279757425157346,0.2064446253821295
6.107667446136475,2.4694985693430564,-2.1855674534244542,2.5617379519688828,2.402628310996576,0.9965063030775432,-0.06826617821622272,-0.6431212706863997,0.9221588284131975,-0.08258123350179156,0.39644350103838777,0.6822963393407155
6.127779245376587,2.5174172366121543,-2.165458880706922,2.5603568095490674,2.3889787124106414,1.0140554363984113,-0.06981352845746995,-0.721033853804795,0.8334975754694514,-0.07222053704766655,0.4033676506599022,0.3462074810757221
6.147763967514038,2.5413144723458245,-2.1549759440484424,2.5596494828332386,2.3820295881675886,1.0307444530628667,-0.07059792675439495,-0.8341896712938703,0.8227419955108545,-0.06248539208162875,0.40917455221418164,0.29034507771397156
6.167717695236206,2.588781074355175,-2.1341972689455275,2.5582256572882742,2.3642794769960225,1.0470841943910145,-0.07175343722620661,-0.9395331558157238,0.8110835167501579,-0.05312813745410246,0.4170245111951254,0.39249794904718804
6.187915325164795,2.6124945030778486,-2.123410686757802,2.5575003938185503,2.357401328555872,1.0632030793051734,-0.07232292119796027,-1.039157181216524,0.8686964669926553,-0.044351875883834074,0.4236727045054294,0.3324096655151987
6.208176136016846,2.7062821945468576,-2.0800734620946755,2.554582196245258,2.3235944504552952,1.1009476615291849,-0.07366816769912876,-1.052304099263856,0.9752216997976577,-0.035396511179713236,0.4421055655571773,0.9216430525873953
6.227756500244141,2.752542922947374,-2.0578528084263743,2.5531023312569814,2.3024463030725775,1.121443179900737,-0.07428976723871414,-1.0619315549947088,1.07286754000312,-0.026827232662826286,0.45146443681307247,0.46794356279475924
6.248136520385742,2.775615354937323,-2.046723451318987,2.552388192575585,2.2943727425024636,1.1288128909765005,-0.07361332533825855,-1.0741148029202305,1.1875992686451478,-0.01910049575773076,0.45382995667697124,0.11827599319493842
6.267705202102661,2.8212873888372716,-2.0239025122566865,2.550912603960528,2.2728042643895114,1.153631066398843,-0.07392091927877918,-1.0820316805762087,1.292618388913752,-0.011715329759395402,0.465080666778102,0.5625355050565384
6.287792444229126,2.8665053185431226,-2.0011969468013797,2.5494815818884615,2.250018515842435,1.1638840292996162,-0.07282842120306068,-1.1050668717851981,1.3671661820787357,-0.004975704193181918,0.46976606748446015,0.23427003531790724
6.307626724243164,2.9334094641723163,-1.9661738045601278,2.5473334503702985,2.213962294948123,1.1907483612146803,-0.07180223404894881,-1.1045690166392685,1.4073627272785347,0.0013704090417215019,0.4819498244582663,0.6091878486903068
6.3277428150177,2.9774679666404937,-1.942074948055728,2.5458980877676276,2.19189872443801,1.219253802445213,-0.07171387516115252,-1.101338413585935,1.4423188678248964,0.007415817127966773,0.49219885807084207,0.5124516806287893
6.348230361938477,3.020876732345284,-1.9180664724676038,2.544527849090982,2.1647908039576205,1.2317495584574503,-0.06996747499266123,-1.0706477230846663,1.436219975418204,0.01276459144379753,0.4968201840282531,0.23106629787055244
6.367824077606201,3.063960497056495,-1.8931447244651607,2.5431313958774036,2.1436900998233375,1.260399559126214,-0.06966089600330112,-1.0393183457724269,1.4285158340444613,0.017849780855618957,0.5074103211215544,0.5295068546650628
6.387841463088989,3.0851679486827037,-1.8807937891584265,2.542471151321814,2.128587368410072,1.2654313248240896,-0.0684466142513128,-0.9856152551781533,1.402200109931993,0.022288105633323344,0.5072958245977688,-0.005724826189279497
6.407657623291016,3.1483203849726187,-1.842401409078864,2.54045014240131,2.0916998524235377,1.3024574215219087,-0.06712686870199527,-0.951333069963408,1.4660173236869236,0.02646043509052679,0.5209675045881506,0.6835839995190884
6.427792549133301,3.189966433971543,-1.8160551275498569,2.539113164144121,2.073021509982314,1.3323618702106237,-0.06655778900288627,-0.9163949326963543,1.5233615385349644,0.030410909389160256,0.5284470341794583,0.3739764795653855
6.447807550430298,3.2103513560530055,-1.8028344324718688,2.5384628705202688,2.0548086135086163,1.343385899003186,-0.06582870638802675,-0.975090059775609,1.6414506378481923,0.03394305819137993,0.5300931844065104,0.08230751135260839
6.4677276611328125,3.2512489372368747,-1.7756311814726917,2.5371533105153734,2.0347764353758993,1.377290996884244,-0.06511618285276569,-1.027013839197009,1.7469947079419574,0.037276496772970916,0.5386109393539056,0.42588774736975754
6.487826824188232,3.271270022843131,-1.762080276897106,2.5365194237803848,2.0161979240835555,1.386854467324674,-0.06424989103347509,-1.1082644769795305,1.8796816541068182,0.04021488927170686,0.5415285917186905,0.14588261823924586
6.507660865783691,3.3113673700729387,-1.7339591216126184,2.535242655987933,1.99329641117761,1.4256557702010455,-0.06341768146168403,-1.1803847207714973,1.9981003246124924,0.0429769720984118,0.5506937721681808,0.45825902247451644
6.527852296829224,3.3509083465614693,-1.7058319004978661,2.534031252694963,1.968401835903075,1.4467588449730413,-0.06124836272835395,-1.152872447483288,2.1392363765535767,0.04522461461130271,0.5562485351200488,0.2777381475933982
6.547821521759033,3.4094840086255425,-1.6620573818557893,2.5322662503510562,1.9345394979234256,1.4954186954818343,-0.05836361626693835,-1.2008899239154514,2.3031176277013024,0.04697682383980057,0.5670415425346671,0.5396503707309153
6.5678417682647705,3.4479318301428385,-1.6316783192835018,2.531108484062646,1.9101098724800394,1.5429766790236565,-0.057407580190212006,-1.2407280532293992,2.4498599536570262,0.04860658003380294,0.5769409206628127,0.4949689064072782
6.587737321853638,3.485932709843241,-1.6012202906065232,2.530061867475578,1.8860994847701553,1.5701366540289285,-0.054120783752787276,-1.2875868971056281,2.519206801236526,0.049524332349607326,0.5791719394986425,0.11155094179149394
6.6076579093933105,3.5419679481716266,-1.5535268224667638,2.528526720195762,1.8474892767081499,1.6314206132218172,-0.050728404168093134,-1.3950931310844525,2.6350109668210453,0.04989781053766272,0.591856318913742,0.6342189707549739
6.627788305282593,3.5786322036664946,-1.5203644674629606,2.5275221541232025,1.8186214714810334,1.685149107213477,-0.04972712105112247,-1.4895392250751711,2.7352837614999435,0.05022243712447028,0.6006805267743665,0.44121039303122167
6.647950887680054,3.596823773253612,-1.5037948372710468,2.5270980765163604,1.805826228039613,1.7019366082668401,-0.04719149824118449,-1.528068238479173,2.8770779163565026,0.050011436310920004,0.59871330173854,-0.09836125179132349
6.667758464813232,3.6326325834168456,-1.469172128480532,2.526164234000781,1.7749574254459695,1.7607476712110843,-0.0461935079722462,-1.5572815128409871,3.0011057252576867,0.049785043281176146,0.6128713614429167,0.7079029852188334
6.687763452529907,3.6681279989776545,-1.434065951729232,2.525373416204867,1.7499305903114206,1.8012628013561751,-0.042098676354890625,-1.741151771427619,2.7875348143172958,0.04879442237526228,0.612896311859144,0.0012475208113649217
6.707590103149414,3.720118659472815,-1.379014730873097,2.5242183168085477,1.706176982004301,1.8778437213058063,-0.03823152220181754,-1.698250257044046,2.655571388557392,0.047239412371275734,0.6250321249053634,0.6067906523109734
6.727784633636475,3.753905485048896,-1.340935503411816,2.5234630339723587,1.672653609562939,1.9296415855461533,-0.0373017193555217,-1.6538411559952761,2.5243402368602306,0.04575200375206899,0.6301832845870647,0.25755798408506614
6.747734546661377,3.7707756126598753,-1.321408462219033,2.523133150905703,1.662559961391709,1.9564585730507469,-0.03583309619881795,-1.6184120187765039,2.2859533719682346,0.04418388044154975,0.6286990058507373,-0.07421393681636967
6.767804384231567,3.8037055278391896,-1.28183758331755,2.522425224798388,1.630552064041621,1.9998619153242527,-0.03496450359803025,-1.5822603852033177,2.0557306629576373,0.04268713218091027,0.6367060317752093,0.4003512962236
6.787873268127441,3.836007624934386,-1.2405360248620143,2.5216735813149658,1.5976177068198418,2.062206706248043,-0.03594985659412823,-1.685207909909837,1.7498646606424608,0.04182218200398358,0.6397205363206528,0.15072522727217486
6.80767560005188,3.883138225393897,-1.1769345532931899,2.520494714143576,1.5461547625882828,2.140544082001961,-0.03819385328856992,-1.6832482663952262,1.5562729469112917,0.04189306794614781,0.6463330839283974,0.3306273803872273
6.827804088592529,3.9137251165370532,-1.1338250620424992,2.5197392187579797,1.5125617893462844,2.169777118867249,-0.037355559267013776,-1.6750201479095292,1.367894696168188,0.04193088094558923,0.6467506686524924,0.020879236204751628
6.847687721252441,3.943665585789255,-1.0886742980328967,2.5187737270676003,1.4814795886453045,2.232236573801763,-0.042189603195652264,-1.4602934275507973,1.139859231938159,0.04340734751106273,0.6498668599215001,0.155809563450382
6.867766618728638,3.973017074930402,-1.0438163598154386,2.5179387085081593,1.4543611950753412,2.2528262108021804,-0.04130775624667185,-1.2527307001475247,0.9205455856185671,0.04475634684003508,0.6485418237813492,-0.06625180700754463
6.887742519378662,3.9873706051334747,-1.0202911541185125,2.5173769367378354,1.438785727768452,2.2875846246802456,-0.04518359534377107,-1.1263134775281403,0.7556333180661574,0.04703654160403268,0.6492467244878499,0.035245035325037755
6.907576322555542,4.029518300911188,-0.9502925836097565,2.515869722560888,1.3910224098482016,2.338754556971845,-0.048715056466721716,-1.027987035974313,0.6760418438273053,0.05033557887709709,0.6484792644140627,-0.038373003689362584
6.927821636199951,4.057139697568798,-0.9033877891574766,2.514905695445919,1.3714443776895002,2.3514464014337926,-0.047677524554048716,-0.9298511441500902,0.5924987467578481,0.05337482372236185,0.6455653616899233,-0.14569513620696917
6.948231935501099,4.070253557712353,-0.8790310405538279,2.514261075865056,1.3463816425052362,2.3795505888977826,-0.05193025360662723,-0.9320175849470256,0.5286822517220261,0.05723145426175643,0.647394382672553,0.09145104913148572
6.967703342437744,4.096994992626437,-0.8313387730184826,2.5132341586358664,1.3277778647925578,2.389448443406036,-0.05074964755676887,-0.9272162980652743,0.46036892149333447,0.06077810433747598,0.6422306962566862,-0.2581843207933421
6.987763166427612,4.122597869798531,-0.7825021670965077,2.512031741128785,1.2896293135428254,2.419923453633407,-0.0542737025581766,-1.0824536211853104,0.24378658789479754,0.06502564072315117,0.6430859708988073,0.042763732106054775
7.007640361785889,4.16063709190631,-0.7092850903017127,2.5103634231827083,1.252676356710452,2.440120957750487,-0.0541727420391465,-1.1495488559996547,0.03463225753665576,0.06923855683329182,0.6350966347851918,-0.3994668056807704
7.027728080749512,4.185456668146439,-0.6604893215032386,2.509294078789312,1.2290863059494253,2.438783142703867,-0.05274885848827592,-1.2080409851147762,-0.16720345244046625,0.07309034794248635,0.6339250184701819,-0.05858081575049745
7.047814607620239,4.197772008367389,-0.6356142344270826,2.508741613563698,1.2203660279468989,2.448275067118939,-0.052743536359032804,-1.1244992729981511,-0.5270896158386882,0.0765450461873444,0.6302029725861629,-0.1861022942009516
7.067894458770752,4.221959999899707,-0.586777109336613,2.50770226561945,1.198711672765801,2.434306557032987,-0.0511808412098258,-1.0409356381015364,-0.8663623981304154,0.07967024084887181,0.6252469179536959,-0.24780273162334776
7.087854623794556,4.245876166152097,-0.5369931706940113,2.506684980195825,1.181248748297584,2.447108209663926,-0.049762542502533466,-0.9914280077951403,-1.1926763849379411,0.08224255775372787,0.6205081691574028,-0.2369374398146551
7.107642889022827,4.280755902329961,-0.4630707724543516,2.505232525488295,1.148333411517097,2.438621394339611,-0.047152517732717315,-0.9627240819673414,-1.5020318309401637,0.08427617131677594,0.6117938614610567,-0.43571538481730343
7.127804756164551,4.3035321421934025,-0.4146184041753417,2.5043064528380623,1.129399717557809,2.405648750591061,-0.0454488389798704,-0.9299834461886116,-1.7920437469791035,0.08604877987059731,0.6073497542005244,-0.22220536302661742
7.148164510726929,4.314622935065259,-0.3897151496219857,2.5038819691574945,1.115896301751631,2.412044402924673,-0.043776041974718315,-0.9021859393585201,-2.0388470697522965,0.08720489773374214,0.6063405733561802,-0.050459042217210204
7.167725563049316,4.336762471118365,-0.3418976719993834,2.5030239556347005,1.0981628398329224,2.3689346866236116,-0.04202216965963487,-0.8705271453350378,-2.269454781218094,0.08814719000375922,0.5967378352933541,-0.48013690314130386
7.187750577926636,4.3475633379582685,-0.31732182382148433,2.5026731708274688,1.0858041108618102,2.3721676819719115,-0.0391870352960317,-0.8606823430029082,-2.515763621865592,0.0882632873376633,0.5984118785373749,0.0837021622010381
7.207725524902344,4.369108188210436,-0.27039715985425156,2.5019070828358285,1.068730206648062,2.3195364096910507,-0.037421886952677806,-0.8458971489373275,-2.744461800962925,0.08822643843099603,0.5857442229949319,-0.633382777122149
7.227782487869263,4.390231937977286,-0.22309125711583577,2.501346494460958,1.0508600288462022,2.298951617922498,-0.031247285909788185,-0.7590493075255307,-2.9464501903232003,0.08670914943110275,0.5845078933238694,-0.06181648355312319
7.248389720916748,4.421397012463149,-0.15466861033168855,2.500602098057091,1.0285373736927999,2.231063049687701,-0.024197594785456585,-0.6224364822642128,-3.1092343404295466,0.0837928303521533,0.568762308204565,-0.7872792559652231
7.267726182937622,4.441852232019605,-0.11067932248279269,2.5001347123335864,1.0174300914764016,2.1673713567608637,-0.022550563382868434,-0.4887832790414397,-3.257553798362406,0.08091708803707627,0.5650021106556622,-0.18800987744513886
7.287820100784302,4.461880504663018,-0.06718475255799136,2.4999762924181783,1.0021762529947242,2.1201284785964365,-0.014030376626472517,-0.38274242583200124,-3.417443935040425,0.07623378493634198,0.556353498950465,-0.43243058525985756
7.307630777359009,4.491450573156024,-0.004792109068624683,2.499773187916493,0.9820674113196342,2.025878243036526,-0.0065642282483839715,-0.2990261292133407,-3.4962278803874853,0.07023196747388713,0.5431990031619898,-0.6577247894237637
7.327740669250488,4.511037646004866,0.03502147213709049,2.499655562443204,0.9769155074160659,1.955251419074069,-0.00521747277058798,-0.21633613910407773,-3.5647698916201356,0.0644857792649791,0.5364168272248904,-0.33910879685497
7.3478264808654785,4.520502006309614,0.054471414842451965,2.4997765297994405,0.9680566839902219,1.9206915022014146,0.00017800954688794075,-0.029020760750676056,-3.627935123687388,0.058003691320412304,0.5345406994112896,-0.09380639068004015
7.367784023284912,4.539869360400267,0.09215594611099984,2.499791273973899,0.9692723206102075,1.847584232527662,0.001275823699542826,0.14906100298637429,-3.681157285425779,0.051828328155786745,0.5197600742870851,-0.7390312562102208
7.387850999832153,4.549221729845185,0.11034582894550339,2.4999524705596206,0.9628362464668289,1.8069570803012571,0.005827438563590104,0.39022637608672345,-3.73579475617453,0.0451837807397086,0.5213644168388663,0.08021712758905508
7.407668828964233,4.5871839759619375,0.17924965026810938,2.5003877270564843,0.958690176834127,1.647128815308514,0.01157742267302567,0.6040906582880349,-3.747337160589024,0.03768145791194993,0.4899484903029685,-1.5707963267948966
7.427729368209839,4.606492104166257,0.2114423151447436,2.5006263320572555,0.9727856179777501,1.5721208108525027,0.01225942630660919,0.8029889348881647,-3.752398727771159,0.030585982477276438,0.4855405224719811,-0.22039839154937013
7.447794437408447,4.615707565498975,0.22655099497294606,2.5008151124927256,0.9648223835800204,1.5218281620569523,0.014278473827841158,0.772867236734004,-3.802189814014549,0.023780631779804426,0.47994292364583346,-0.2798799413073816
7.46774959564209,4.635156721124804,0.25622427807368575,2.501105003864734,0.9800022485390165,1.4453658735054027,0.014689272194312488,0.7455869164340793,-3.842476467131436,0.017363135884360018,0.4615843640610797,-0.9179279792376871
7.4877707958221436,4.654102526703859,0.28362594724103835,2.5014660671104534,0.9769026676582742,1.3497458111821168,0.016505758918928262,0.8204630081779054,-3.878771945543398,0.01117709374957996,0.4510235615047917,-0.5280401278143998
7.50759744644165,4.683592928441188,0.321887415998274,2.5019859109963303,0.9964643216247855,1.2194586820211484,0.017315707075805643,0.8050985642379769,-3.882136972867809,0.005284051018115441,0.4198528053359536,-1.5585378084419066
7.527805805206299,4.703682259479602,0.34550024590298567,2.5023329073829763,1.0124208365130773,1.1418335426279063,0.01736550456861369,0.7907144867486537,-3.8793696714613577,-0.00024419331218159484,0.4100901999152784,-0.48813027103375983
7.5477728843688965,4.724158143272634,0.36677835744028636,2.5026621702930174,1.0306611137582655,1.0445011762453476,0.0167312274995963,0.7862087712540878,-3.884997189480399,-0.00501235585756638,0.3834931780085391,-1.3298510953369647
7.567765474319458,4.7449283515112155,0.3868913367548719,2.5029954902164193,1.0463476514073784,0.966799934841704,0.016585915733111935,0.7825907199845286,-3.884046481202861,-0.009467209427407126,0.36765602901409977,-0.7918574497219666
7.5880584716796875,4.755620136606315,0.39582661687955695,2.5031160226189946,1.0593637193953822,0.912521574625601,0.01512769344637326,0.7440267246532071,-3.889709853473376,-0.013024860038729632,0.3551842277239263,-0.6235900645086723
7.607730150222778,4.776953851983921,0.4132990677769942,2.50341574698915,1.0738929906492076,0.8347271417757359,0.014833725281836704,0.7095765048254861,-3.8886251328928623,-0.016330446369339682,0.33061656087494296,-1.2283833424491686
7.627774000167847,4.787977420708146,0.42092578912803535,2.5035040909585984,1.0879148111012418,0.7813685127220982,0.012931615508598983,0.6728570918318569,-3.8256501986091997,-0.018752635267232632,0.31872924412793635,-0.5943658373503302
7.64811635017395,4.821258459742241,0.4421109432831948,2.5038127908155525,1.1178070511696085,0.6520559101975623,0.010306618388954296,0.6547537407961004,-3.72696756041211,-0.020360955344240383,0.2873133175920386,-1.5707963267948966
7.667773723602295,4.843744490548019,0.45441322842344467,2.504014750990698,1.1307453743970128,0.5785003067289332,0.009884517681310533,0.639555840897192,-3.628657156094477,-0.02182544965685946,0.25589739105614084,-1.5707963267948966
7.687711000442505,4.878780112335979,0.46884084110847146,2.504077728066671,1.1679971644843015,0.4410823570843734,0.0039683644210158076,0.5928149940568699,-3.545340469217054,-0.02162777450551031,0.2244814645202431,-1.5707963267948966
7.707674264907837,4.9022557730220795,0.47695910927489477,2.504152784650887,1.179431063842691,0.3710311037572675,0.003538063866622526,0.5514604707386057,-3.4593492353657873,-0.02139683419409378,0.19306553798434534,-1.5707963267948966
7.727741479873657,4.914482555189202,0.47986634127304306,2.504029872523743,1.1964588029857068,0.31923511082469425,-0.001212759343176335,0.5441896546286665,-3.372190899391828,-0.019952738732264132,0.16164961144844758,-1.5707963267948966
7.747646331787109,4.938520248840823,0.4855825182135222,2.504001720661944,1.207297236654382,0.2526798852557782,-0.001597772874473998,0.5401902602335524,-3.2830020522885275,-0.018556538345578355,0.13023368491254983,-1.5707963267948966
7.767719507217407,4.963403043191218,0.4889587304139754,2.503700511745092,1.2335340585376962,0.16253853944167765,-0.008561577083023015,0.5356161726544453,-3.1714035260395117,-0.015503835682577837,0.09881775837665208,-1.5707963267948966
7.787822723388672,4.9881806990735065,0.49158264133418633,2.5035263750682857,1.2442266646001028,0.1002232566280454,-0.008842438847611454,0.5341549937305364,-3.060193032452816,-0.01260825634392591,0.06740183184075432,-1.5707963267948966
7.807875394821167,5.0009892224745975,0.4917874159739583,2.5032734962222616,1.2595565939117064,0.0513819251937582,-0.013590429751623006,0.5864911728284479,-3.057644290509942,-0.008807545298582178,0.03598590530485657,-1.5707963267948966
7.827752590179443,5.039278348098661,0.49133324860128075,2.5027048469183124,1.2837767347328175,-0.05721499640966294,-0.01828826033309074,0.5943331326328345,-3.00008065207716,-0.004088685889104384,0.004569978768958816,-1.5707963267948966
7.847855567932129,5.065073380822846,0.4895929019253268,2.502338564350632,1.2957598856891717,-0.11661905466362975,-0.01832521161046943,0.6043363729933517,-2.939897473482123,0.00034686672254681837,-0.026845947766938938,-1.5707963267948966
7.867747068405151,5.078216565539345,0.4878062112584537,2.502018858505859,1.3058044305702328,-0.15863921697767738,-0.02211830652211238,0.5620615885919151,-2.8590898624770746,0.005260135908881696,-0.05826187430283669,-1.5707963267948966
7.887718915939331,5.128442200864501,0.4791084104231767,2.501025214558751,1.33210751354562,-0.2813808415945111,-0.025804587999884145,0.5334373851608348,-2.727991242214188,0.010836568246646743,-0.08967780083873444,-1.5707963267948966
7.9077348709106445,5.155189280378241,0.47294381369324673,2.5005116434975103,1.342514993920231,-0.3346499289144743,-0.025535151238496374,0.5078030259254728,-2.5993201037437896,0.01604677488334029,-0.1210937273746322,-1.5707963267948966
7.927787780761719,5.182386346817935,0.46515824179877646,2.499864558079884,1.3582299801753852,-0.40015086786976006,-0.028657536286134145,0.42888233736953313,-2.4765106052526735,0.021531239284980422,-0.15250965391052995,-1.5707963267948966
7.947769403457642,5.20963181972893,0.456668006994762,2.4992960601014516,1.3660780431864954,-0.4484700841330843,-0.028175251289051618,0.35709913395195114,-2.3557519020195006,0.026634469302705962,-0.1839255804464277,-1.5707963267948966
7.967761039733887,5.223508982549021,0.45165247264172625,2.498924980220536,1.374111896901218,-0.482476241856686,-0.030446077930443214,0.2026916105088507,-2.205575284161583,0.031729136891147064,-0.21534150698232546,-1.5707963267948966
7.9877448081970215,5.251022026571213,0.44157163261454074,2.4983227252514624,1.3767151368817052,-0.5251212706945539,-0.029763691395890232,0.059476886003177895,-2.0596272035059755,0.036447561643568945,-0.2467574335182232,-1.5707963267948966
8.007726192474365,5.279122673597215,0.42989347444506837,2.4976021711493654,1.3900867555027152,-0.5840509483537136,-0.03226743508188673,-0.2137903328862679,-1.8901884387113201,0.041334559212763494,-0.27817336005412097,-1.5707963267948966
8.027687549591064,5.321297041811141,0.4110187116100008,2.4965755477784795,1.3968700151216034,-0.6532532773603963,-0.033174396222460226,-0.6284796612967685,-1.6722010228406299,0.04621028726084711,-0.3095892865900187,-1.5707963267948966
8.047937154769897,5.349082626893065,0.3976332644585191,2.4959216072708124,1.380407642669063,-0.6845963204319838,-0.03220471026057815,-1.0127466775969454,-1.4636627353677933,0.05069373328592494,-0.3388139383829958,-1.4612325896488532
8.067770004272461,5.363629384953323,0.3902509988441737,2.4955313390448786,1.391328615251004,-0.7098317761718798,-0.03368239551496925,-1.2564155541381627,-1.1521154670434903,0.05501383889984945,-0.3352096651901224,0.18021365964366876
8.087720155715942,5.406048556746971,0.3677257259428011,2.494470578967077,1.3867585620535796,-0.7632071041641678,-0.03417396034839162,-1.5366811106894025,-0.9441399749063101,0.05928588782943211,-0.3545439229965903,-0.9667128903233957
8.107752323150635,5.433458920487171,0.35228610451709363,2.493799222602831,1.3534241870855985,-0.7800961101297957,-0.03294870732231279,-1.792778623982625,-0.7464578203621113,0.06317667475121247,-0.35875526126256485,-0.21056691329872645
8.127742052078247,5.448062446510836,0.3437550662099471,2.493376294103803,1.3706568029039459,-0.8073275955357492,-0.03499243838708493,-1.4899700076220632,-0.7748635983739058,0.06710268867499265,-0.36186212506593485,-0.15534319016849985
8.147677421569824,5.47519732131803,0.32745191320353745,2.49269010877004,1.3438097771813773,-0.8230647638672034,-0.03361425967886536,-1.1962388775663326,-0.7979834710729773,0.07065344251523464,-0.3694146233990816,-0.37762491665733755
8.167785882949829,5.48935394945577,0.3185778669758396,2.4922955827650424,1.3460776776319991,-0.8461429530531996,-0.03454074776009897,-1.9742668425692513,-0.6368617529421196,0.07398590625361327,-0.3728961164809954,-0.17407465409569056
8.18770432472229,5.542293155161949,0.28381270336719766,2.490970811151457,1.2882866390013505,-0.8793889189164087,-0.031334468147645435,-1.5913866260738647,-0.4440916697900832,0.07652409232569868,-0.39066735628696136,-0.8885619902982977
8.20789361000061,5.56776534746376,0.2661484755531848,2.490359580283497,1.2601564153101972,-0.8864233668358026,-0.029781189890549665,-1.224234942376958,-0.2609396842341555,0.07875285871282324,-0.38994592325631183,0.0360716515324766
8.227657079696655,5.580478226588785,0.25713847632209325,2.4901421033262903,1.2543036595351833,-0.8933575046650812,-0.02679900866115044,-0.9231875315293029,-0.3277222763977799,0.07990024668299973,-0.3922819286489134,-0.11680026963007961
8.247640371322632,5.617054240161065,0.23000988069544978,2.4894322079183517,1.2106915484808638,-0.9073029865606327,-0.0228026477234562,-0.5440450063482833,-0.2599272416509459,0.08012451636793587,-0.402149950132642,-0.4934010741864281
8.267828226089478,5.641183580560532,0.21181633120014895,2.488992186092837,1.2034426284405682,-0.9118275874726198,-0.021199366496055055,-0.18399751655637772,-0.1926149155060115,0.08017510505959653,-0.39878747712248463,0.1681236505078676
8.287704944610596,5.652212217410578,0.2026832918528078,2.4888026883752645,1.175054114694606,-0.9117052712896286,-0.019979903092913816,0.11689844412393927,0.04261455329458003,0.0798333842671157,-0.4055347041982169,-0.3373613537866138
8.307753562927246,5.675755951611424,0.1844726896774911,2.4884190272231317,1.180269941532054,-0.9086174803565112,-0.018387814789459545,0.40209470275186043,0.26385945402531596,0.07935265973181138,-0.39798350069194655,0.37756017531351826
8.327720403671265,5.707945782555403,0.15711231943061957,2.4878790862573736,1.1185652594879432,-0.9046536254496953,-0.0165137580157073,0.6633355814828663,0.4762469146136011,0.07847049000467436,-0.4114420694106835,-0.6729284359368481
8.347749710083008,5.730466463077928,0.13912796757296858,2.487564441118632,1.134326542916041,-0.8931193167891257,-0.014954045672694335,0.9104655480529532,0.6749251936564672,0.07748360905280885,-0.3954711978110028,0.7985435799840346
8.367741823196411,5.740381090372122,0.13005446732946407,2.4874333881452104,1.102740739083331,-0.8889960764912799,-0.013712591918598636,1.0251410546668598,0.9655231108856275,0.07621061667245761,-0.40758370490331597,-0.6056253546156576
8.387656927108765,5.7618152882019,0.11224171830330665,2.4872014076936666,1.0977127706840548,-0.8753038518722488,-0.011267676614835105,1.250369638094684,1.226491227600409,0.07452106918131415,-0.39654566450093576,0.5519020201190106
8.407824516296387,5.7840338792443795,0.09499732900832643,2.486990843283211,1.124847021952457,-0.8483321843355796,-0.009794558801993201,1.4605819972010277,1.4673673051063794,0.07278279934063729,-0.3830467596698668,0.6749452415534485
8.427804946899414,5.804865233465971,0.07748932354599636,2.4869521427724814,1.1074839633289901,-0.8389041719242567,-0.004584487724305857,1.690576568489809,1.618901424544029,0.06985293442802723,-0.3874994612393112,-0.22263507847222197
8.456127643585205,5.837667284288173,0.052543121389172026,2.4869946238741045,1.1260313742449766,-0.8010889122477318,0.0018155243855099863,1.8606039685478213,2.026432211383789,0.06562932887703414,-0.3644528064023418,1.152332741848472
8.467622518539429,5.860570779733153,0.03695211999795075,2.4870437849184452,1.1648458531076584,-0.7567642990013509,0.0030869182695278823,2.0189133044156633,2.4005242207044657,0.06153076885943677,-0.34644725671015175,0.9002774846095019
8.487707376480103,5.882755758290694,0.021520086907885153,2.4874140834798886,1.1699497674781245,-0.7264890011488868,0.011839364171919439,2.2622839783287882,2.7199983845150237,0.05556842058080722,-0.339055056536508,0.3696100086821863
8.507746696472168,5.906622508176597,0.007554149024306377,2.4876615996058606,1.2174748608828494,-0.6691365925023957,0.012893215010715126,2.487183190607768,3.0104688624930747,0.049858319146802846,-0.3076391300006103,1.5707963267948966
8.527810096740723,5.918063160378648,0.00029602953313628995,2.4880564083600367,1.2194605303505697,-0.6573251694706224,0.021013549773707174,2.639434766830292,3.2531997770487213,0.04264829551337713,-0.31305476970989066,-0.2707819854640192
8.547788143157959,5.942989742773717,-0.012184928296829968,2.488484746102564,1.273661013510907,-0.5900463033056447,0.021797371510274107,2.778431489783511,3.4705037979839544,0.035792286015194436,-0.2816388431739929,1.5707963267948966
8.567745208740234,5.967741642455391,-0.024612086962958118,2.4894369557813953,1.2986637919230573,-0.5526087201573423,0.035285371953751116,2.827209677960469,3.5206692358427576,0.026133653751217498,-0.2599115633342932,1.0863639919849843
8.587705373764038,5.9939671493795625,-0.03530352882472712,2.4903497082652453,1.345340285261938,-0.4931164515746387,0.04244977840553385,2.866955106580822,3.5444867033296124,0.015452362404767432,-0.2319294894962245,1.399103691903436
8.607670068740845,6.021449668542923,-0.04445599559191169,2.4912011134871537,1.4030223809274294,-0.42209219459875413,0.04265721763287799,2.9001830261275763,3.5559018484290545,0.005394288374116906,-0.20051356296032674,1.5707963267948966
8.627717018127441,6.049718844540326,-0.052459113218004214,2.4925372481202928,1.4524386134279517,-0.35540391805307764,0.054401909447724425,2.8308855284571304,3.6227176903375566,-0.006693763848148069,-0.16943574573391418,1.5538908613206281
8.648178577423096,6.0793292875725955,-0.05883896843793636,2.493623179520598,1.5083822461686638,-0.2824103378326734,0.054153451470983376,2.763851789478759,3.6741046887732205,-0.01802778136562871,-0.13801981919801642,1.5707963267948966
8.66773247718811,6.110321708422338,-0.06340168609412439,2.4950350006908044,1.5720021507989355,-0.19968749538968888,0.06314918836843396,2.7823225877419198,3.656631615882465,0.1418988150562038,-0.10660389266211867,1.5707963267948966
8.688030242919922,6.159192561350126,-0.06736721604291589,2.4970355380875118,1.6687886711229623,-0.07971785299628924,0.06912686994835561,2.7831645558029106,3.549316042684907,0.256867578985222,-0.07518796612622092,1.5707963267948966
8.707734823226929,6.193124822637444,-0.06825904529693438,2.498476604651469,1.7244269075887864,-0.00983478679020799,0.0753291990840704,2.7800015389642736,3.438404352827003,0.3616954174105211,-0.043772039590323164,1.5707963267948966
8.72776985168457,6.211047741754613,-0.06762536727615076,2.4991496764009136,1.7674554138771155,0.038739779101368096,0.0755341701851276,2.743825501709081,3.1657088948532617,0.3068574302694114,-0.01235611305442541,1.5707963267948966
8.747678279876709,6.246943109516733,-0.06623495365133442,2.500718221518704,1.8219545478412917,0.09943621055315231,0.08114725910979259,2.7057822682239308,2.906092773460044,0.25493164884645036,0.019059813481472343,1.5707963267948966
8.767762660980225,6.265889669940332,-0.06411525845843703,2.5013531713070076,1.8659082368561584,0.15575009761491826,0.07800171632267505,2.7008227371882887,2.744067777815738,0.20968495610542362,0.050475740017370097,1.5707963267948966
8.787734508514404,6.323677106276843,-0.05678494856065356,2.503638623729958,1.963109184521252,0.2785094208180333,0.07908269738775461,2.617731875257411,2.705023192547316,0.10603524413347358,0.08189166655326785,1.5707963267948966
8.807809114456177,6.363457384385777,-0.050676685544577556,2.5052349185188625,2.0146474781193593,0.3321650277198726,0.08022412564410265,2.5363871236013353,2.659470870825375,0.009235785580554837,0.1133075930891656,1.5707963267948966
8.827739238739014,6.405151723144075,-0.04154635473608762,2.506625568503584,2.087367214760926,0.43234837708901963,0.07464127922850883,2.464715556629134,2.548565417965453,-0.07311911139209128,0.14472351962506336,1.5707963267948966
8.847690105438232,6.447387294552346,-0.03239709399406637,2.5080985721070475,2.135955157302318,0.48220629738359105,0.07240397734375674,2.39428478519945,2.4371466107792874,-0.14965259420508686,0.1761394461609611,1.5707963267948966
8.86774754524231,6.469505657877405,-0.026442124782211866,2.5087565438916397,2.177874481926858,0.532766273634985,0.07086054193567261,2.364939165535996,2.160894123139914,0.0535608967514037,0.1820032539817258,0.29319039103823386
8.88768458366394,6.559480948059883,-0.0018141195175251958,2.511307059554209,2.2950307951916606,0.6544712909933054,0.06363090603651614,2.22054330553174,1.6377594813396341,0.029643190325581683,0.206795200110792,1.2395973064533106
8.90773320198059,6.605816155446192,0.01156953109301326,2.51258408572843,2.3380159151061966,0.6822529050988582,0.06399689880468389,2.078335179948263,1.1454885219718474,0.007198857866250757,0.2030029321898259,-0.18961339604830485
8.927772760391235,6.629888693599821,0.01966523016691716,2.512892759196472,2.3769742677621424,0.7252639365643713,0.05435885895725515,2.2525793638259484,0.6871128031164424,-0.010160825111491566,0.21217192103823468,0.45844944242043884
8.94772458076477,6.677889333080978,0.034279014179553924,2.5139768037811834,2.423605532408497,0.734695596615548,0.053991513897688,2.407343614110733,0.2614395684775325,-0.026386948873748445,0.20683492557244598,-0.2668497732894348
8.967788457870483,6.727493272872286,0.05207402401585589,2.514482388259269,2.487703863393298,0.8140195527560099,0.039122649822752445,2.598044190872631,-0.11577643101476114,-0.03700557257563721,0.22235006484199138,0.7757569634772699
8.987684726715088,6.8031933461405005,0.07853263613929216,2.515321723785814,2.5614139619336473,0.865989124532324,0.029096011295555148,2.508624302013741,-0.5755622050405585,-0.04429270604505861,0.22182172487441987,-0.026416998378575585
9.007750272750854,6.854917232526593,0.09570820204363481,2.51589432803651,2.6106662601644923,0.8501377321189194,0.028142008541622725,2.416102069926001,-1.0044942383860878,-0.05101450784079566,0.21241668081709442,-0.47025220286627256
9.027715682983398,6.8809857803204375,0.10598173500284726,2.515976803854905,2.63019737180731,0.8896168458935542,0.022190837530075877,2.3751942009421487,-1.228956679296125,-0.055352263005113825,0.22226705732480756,0.49251882538565717
9.047775983810425,6.934061889694969,0.12351437795114317,2.5164092810824097,2.6772672748387882,0.8629697623625344,0.02104376212688699,2.331308739368723,-1.4322715447112915,-0.05928936345479979,0.2075537949513646,-0.7356631186721474
9.067801713943481,6.961007291707398,0.13389646606333913,2.516529463112305,2.7012279995416706,0.8981825620666153,0.020761021072237863,2.184152323317542,-1.6096299075744092,0.2664022168009443,0.21737681237152673,0.49115087100810584
9.087653160095215,7.071246540564296,0.1707219286829,2.517199013612673,2.799942579010801,0.8857034149517657,0.02124877774461029,2.152096903055078,-1.6579425325078745,0.23002432916556856,0.2003917543999969,-0.8492528985764913
9.107779741287231,7.127673469477879,0.1881015522377063,2.5176676653583883,2.8426298597679582,0.8521221144600496,0.02550155261142868,2.1159635328590114,-1.6989936260812202,0.19557037724531195,0.19307006513155578,-0.36608446342205614
9.127781867980957,7.156527819293608,0.19728615510007247,2.5178278837583306,2.871275038713561,0.855459194743935,0.024647811978089393,1.923444683055795,-1.695969433919389,0.1653300406785905,0.19330710697657105,0.011852092250763668
9.148056030273438,7.2143255594679125,0.2140564786725884,2.518351972820227,2.907882856703414,0.8215920009120107,0.027665798906895828,1.7386058202791888,-1.690319316979284,0.13674085077598044,0.181650479377784,-0.5828313799393525
9.167772054672241,7.273418001062426,0.23052254374985276,2.5190906628059486,2.9568945500843107,0.7960791076666452,0.03450646290993378,1.6258701301906555,-1.600658421669479,0.10967765266962397,0.17448953440457116,-0.3580472486606423
9.18775987625122,7.332873697514579,0.24612977999492344,2.519801001144021,2.9883091061097624,0.7649306451005592,0.03644232848530335,1.516072972873499,-1.5148187530225699,0.08416435591229544,0.16599348325386076,-0.42480255753551965
9.20775818824768,7.393672102966784,0.2606922724432721,2.520794330021385,3.0360572701356245,0.7234368788477376,0.04409971963102428,1.4183225793842145,-1.368937272531278,0.05960353885650615,0.15505116733851398,-0.5471157957673389
9.228070735931396,7.454670455688652,0.27489649730922866,2.5216866821126502,3.063456146966893,0.6974419271052417,0.045058563139562906,1.3217665275057333,-1.2320380936710191,0.03652507250036882,0.14917571343996672,-0.29377269492736335
9.247835874557495,7.516906485209541,0.28744111181948356,2.522805336860056,3.1061860768970226,0.6435041000444414,0.05072367137678539,1.189195297559866,-1.1100747630880872,0.014624602410801086,0.13545612537197504,-0.6859794033995836
9.26768159866333,7.5792594460408615,0.30009691284798246,2.5238213452681175,3.128683959014642,0.6224561718280978,0.050808825671512604,1.0613800209962583,-0.9960209908022032,-0.005879063132057316,0.13177887381876108,-0.18386257766069836
9.287754774093628,7.6426892243333695,0.31067297390356713,2.5249728201288555,3.164106095906915,0.5606342807071056,0.05380309697794343,0.8386589375968454,-0.926691253801508,-0.024811581050041834,0.11622183323841195,-0.7778520290174562
9.307857036590576,7.706124807510472,0.321704745095382,2.526042721959472,3.1787482140386984,0.5427607657688487,0.053128255343049574,0.627452753858764,-0.8613116816187438,-0.04246130806864519,0.11448401281097231,-0.08689102137198201
9.327726364135742,7.738411017541553,0.32590727121624324,2.526621674785515,3.197620450797701,0.5017292440311655,0.05391950517560659,0.5354511228589734,-0.7131013549332004,-0.058151587796364985,0.10420208899560812,-0.5140961907682096
9.347776889801025,7.835195228063461,0.339422460589023,2.528249766688747,3.229992000980137,0.446525523045617,0.0530471110212828,0.41349350843412386,-0.6008739622564419,-0.07245457507983355,0.0913633903289508,-0.6419349333328661
9.367743730545044,7.899869909761662,0.3482400461838446,2.5292953187148206,3.2370878284386193,0.4355917040186125,0.05146401960219517,0.2969896844399178,-0.4932723822374423,-0.08567661076952819,0.09042648736081249,-0.04684514840691545
9.387829303741455,7.965392900181164,0.35506121672927904,2.530329779411615,3.2587877158977743,0.382050120448006,0.05020437934715821,0.06833750247893847,-0.3643950500192249,-0.09702784103020791,0.07682512839624733,-0.6800679482282579
9.40771484375,8.063613042692731,0.36520361222062514,2.531804406757032,3.2718298758575375,0.33960849230139956,0.04754668401582524,-0.07306567394238388,-0.19515139479416369,-0.10695006824334131,0.06831119064602698,-0.42569688751101786
9.427741289138794,8.129025994735754,0.37196752212014444,2.532733332753314,3.2690202113239644,0.33731257222906746,0.04531575197861794,-0.20660353911283216,-0.03612538807571584,-0.11599952934728901,0.06876144499844195,0.022512717620748468
9.447906017303467,8.162061461151946,0.37423831054804835,2.533188022852202,3.276641108879852,0.307082546311018,0.044296557883253956,-0.2340873394624936,0.13788517026878575,-0.12355642766686294,0.0611754804267064,-0.3792982285867774
9.468332290649414,8.227545653923618,0.38041857121722084,2.534048776874057,3.271687914493133,0.3114858047766535,0.04175617497711212,-0.2611633149498722,0.3005745725085137,-0.13035755619607076,0.06342378864594034,0.11241541096169705
9.487723350524902,8.26055652182225,0.38234112143883886,2.534476075435378,3.276172533160453,0.279877979019869,0.0408816233233511,-0.40926279097789814,0.2577299093745196,-0.13594917000671716,0.05491468027550628,-0.425455418521703
9.507600545883179,8.391549816317907,0.39210984729635073,2.536055881237335,3.2655673435972514,0.2519246673410908,0.036798711257743595,-0.48069072530098655,0.38036272947943217,-0.1403667320882448,0.048861112147836394,-0.3026784063834942
9.527727365493774,8.456760499522918,0.397232186681166,2.536763517424948,3.25527859143965,0.26069132558404984,0.03395216220180317,-0.547408106057373,0.49498195430635433,-0.14419059725385103,0.05171038908962755,0.14246384708955784
9.547770738601685,8.489304837343074,0.3991250794226086,2.5371539320216034,3.24877213928727,0.24568373911330768,0.03418386409367042,-0.7130096547514315,0.5861635943237408,-0.14740854251808846,0.04760448838340947,-0.20529503531090398
9.567741870880127,8.554127205461706,0.4041617322811006,2.5378079398251243,3.2329503718510666,0.25826332618805176,0.03120796671692537,-0.8673041934836091,0.6706998981813099,-0.1500936586241122,0.05116374539144175,0.17796285040161397
9.587708711624146,8.650932424109348,0.4108185057423856,2.5388556541802005,3.2115342617166913,0.24937458755647243,0.030776444282222752,-0.9295423480444026,0.7894205775586606,-0.15230330298277667,0.04808547547484876,-0.15391349582964953
9.607673406600952,8.715026841447548,0.4156862269278023,2.5394983295429703,3.1940328017099526,0.25681321185862904,0.0296436179829364,-0.9948494580118383,0.9015851148498145,-0.15417211686216614,0.05059013933729517,0.1252331931223205
9.627843141555786,8.77870441567958,0.42100982684693916,2.540060266235808,3.1735230113382626,0.2758901609328787,0.026545371794804432,-1.055334169140847,1.0046028897074633,-0.1555761991653227,0.05461131544863118,0.20105880556680056
9.64774203300476,8.81040715867372,0.42336237727547577,2.540425479726114,3.162525572775794,0.27388802626136144,0.02805960297516791,-1.1483623169956951,1.0970575057139793,-0.15695712973817946,0.05353069272305566,-0.05403113627877598
9.667915344238281,8.904743031097622,0.431630180887325,2.541307735540625,3.1261902757100333,0.2943018215909736,0.02651646309464928,-1.2800578078183207,1.0803682991876111,-0.15803954173666362,0.05897924339618266,0.27242753365634975
9.687804460525513,8.967002528885809,0.43773107241180004,2.5418064061269896,3.09935265386493,0.3157246677883602,0.023348407701488105,-1.4021161786956933,1.0615705012577707,-0.15869611133468922,0.06305064634956992,0.203570147669363
9.707633018493652,8.99786950182451,0.44071980005121886,2.54214149795145,3.0833157227725154,0.320990982353148,0.024876803720357825,-1.44769537851829,1.1170056074223689,-0.15940799495989744,0.06387470681069374,0.04120302305619106
9.72787618637085,9.059243430018759,0.44736636335347096,2.5426071254014837,3.0539378914028577,0.34382667202767014,0.021684924712952105,-1.4894582650079493,1.1654058470586353,-0.15971317693455175,0.0693183848858725,0.272183903758938
9.747904777526855,9.120050612318922,0.4544848589710204,2.543165529649674,3.0241351149225095,0.3688722282217476,0.02236255678514189,-1.539372010202074,1.2964893447024328,-0.1599592492268421,0.0747227280191316,0.2702171566629552
9.768012762069702,9.180222418963005,0.4621297275275165,2.5435807916540205,2.9928995232195224,0.3960108573910921,0.019164092693743032,-1.583182379744184,1.4153632567651746,-0.15982473761369395,0.08067158677771546,0.2974429379291932
9.787786483764648,9.21002021172427,0.46620127896433317,2.5438554627432195,2.975568636993023,0.41288761094080684,0.02015182742945291,-1.5632462211521072,1.613564636079348,-0.1596873171578327,0.08345591162644483,0.13921624243646846
9.807786464691162,9.29845761996519,0.47913790192523464,2.5444757931041107,2.924935291188915,0.457526398474412,0.017868839874040844,-1.5431702618596155,1.80358960808248,-0.1591562198254144,0.09449438642666008,0.5519237400107624
9.827878952026367,9.356649171577834,0.48866089926291273,2.5448013908108718,2.894296177925076,0.495345835324011,0.014693812461310591,-1.5202794049421462,1.975347145473493,-0.15829190620581488,0.10080472727009138,0.31551704217156473
9.847791194915771,9.436534995751328,0.5026663242361086,2.5453235932545155,2.8384304205182156,0.5364675169693551,0.014165520158680894,-1.5116063402928557,2.085549690137265,-0.15720058393752828,0.11016535766081237,0.4680315195360496
9.867859125137329,9.493002055027313,0.5138194458727078,2.5455755512005234,2.80831729126437,0.5791664544646494,0.011034901108542815,-1.499073052608079,2.182097941970181,-0.15581275421989454,0.11860145145755485,0.42180468983712416
9.887933731079102,9.5206430044204,0.5194259133997267,2.545754968016972,2.7828335950931264,0.5931782188564361,0.01165850439760297,-1.496136170305244,2.2146235310503433,-0.15446099534955582,0.11995393631823159,0.06762424303383696
9.907826900482178,9.60308290863727,0.5380343502792271,2.546094741672929,2.7273701577805007,0.6550377694717572,0.008692920839326261,-1.4970292424873735,2.234743999115513,-0.15259923402321654,0.13531742233292032,0.7681743007344366
9.927792310714722,9.657331122843653,0.5515830056645676,2.5462382165255515,2.6974666365612276,0.699868929766407,0.005661577174144832,-1.4924199591643277,2.247095943816411,-0.15049555750203186,0.14076877096007223,0.2725674313575954
9.947740316390991,9.683896070323804,0.5587356677171308,2.546319951680729,2.6729979474718486,0.7240006550214638,0.005060967621596148,-1.4985281927600416,2.256609337555218,-0.148193986285621,0.14591750036994888,0.25743647049383256
9.967668533325195,9.737056223529763,0.5736672950054631,2.546391696099353,2.6430173995848407,0.7691710826448374,0.0021218374247913546,-1.4985233794958484,2.2593152722765857,-0.14568516591145503,0.15432657511093506,0.4204537370493089
9.987794399261475,9.789171864181036,0.5897970876339779,2.5464155881639865,2.602762028922639,0.8218941376864547,-0.0005768093049801254,-1.4146164537039372,2.233623946283682,-0.14250180186051506,0.16477620759175426,0.5224816240409602
10.00779676437378,9.840949743001191,0.606679723140693,2.546375771011554,2.5753033807048116,0.8662665662903007,-0.0033938197667342813,-1.3313585768566392,2.202772690854937,-0.13917605937076205,0.17154032408077224,0.338205824450899
10.030917644500732,9.866322595395063,0.6157387150539867,2.546325219892331,2.5533923847998485,0.8964945890868278,-0.0050562133039116644,-1.27211505470569,2.1919254310812386,-0.13552100677915777,0.17607832221081798,0.22689990650228697
10.047705888748169,9.941908577690844,0.6439752775039993,2.546081541668257,2.5031468588707817,0.9723995005869726,-0.010021219752937523,-1.1928534251801934,2.1843681720275256,-0.1309486835897136,0.19160023296016648,0.776095537467425
10.067973852157593,9.991738163473647,0.6638592990071482,2.5458552341255842,2.480071602838918,1.0159549978884355,-0.012594177415097697,-1.114888424697521,2.170076006791826,-0.12634161918269185,0.1934288414998826,0.09143042698580572
10.087738037109375,10.040400324868692,0.6851836421254767,2.5454911931210717,2.4403475788079065,1.0736796487000337,-0.017336454646603335,-1.0411210292759183,2.164752596919349,-0.12074196653098694,0.20572423943916762,0.6147698969642512
10.107685804367065,10.112663511775663,0.7187577523082425,2.544841096891469,2.395790509563167,1.1498881538099648,-0.023081886352575593,-1.0094760831953167,2.181891133223921,-0.11412659976334961,0.2161569139993733,0.5216337280102845
10.127767324447632,10.160379679978723,0.7421925566429317,2.5443570686256733,2.3759413161492047,1.193617569034187,-0.025299305231338446,-0.9749762170040246,2.189482628323677,-0.10763610146994496,0.2180086560304546,0.09258710155406469
10.14766812324524,10.183700109404848,0.7545945680694662,2.544022162795197,2.35522056418308,1.2253648536993995,-0.028486908624827976,-0.9825154017177643,2.159981584222142,-0.10080258525273643,0.22460956473164417,0.33004543505947836
10.167739152908325,10.23060767585005,0.7795314754782869,2.5434327115093267,2.3355216321604404,1.2681997205829993,-0.030435985359492598,-0.9868513369172626,2.122135921789287,-0.09413218693651641,0.22715223874709034,0.12713370077230834
10.187735319137573,10.276710823140258,0.8058299199204524,2.5426996276976848,2.30718293127695,1.323509696966824,-0.03485460501636222,-0.8593851836495903,2.124990736336866,-0.08675703746305308,0.23572832847677017,0.4288044864839913
10.207716703414917,10.345335031108984,0.8468236343217922,2.5415526266772286,2.2765062694715423,1.3965902116873887,-0.039168052313299145,-0.7268291632281103,2.1143949275183616,-0.07877357676463972,0.24243714648169323,0.33544090024615336
10.227914810180664,10.39072840249525,0.8751771208436628,2.540754029203957,2.2632577390652724,1.4386905700633228,-0.04066601109808097,-0.598767023224673,2.094038702265315,-0.07106833466230944,0.24233843514278464,-0.004935566945429848
10.247723579406738,10.413060937367714,0.8899599110466127,2.5402836947867486,2.25028982760561,1.4675746009202288,-0.043028302740078725,-0.4946536114439199,2.057901109457564,-0.06339499791714903,0.247391283408521,0.2526424132868188
10.268352746963501,10.47991164964572,0.9352011652839287,2.538897505873167,2.223810143848582,1.5375365435464252,-0.04676825471757688,-0.3956651473128525,2.0595416389420236,-0.05522486193532487,0.25224732935675354,0.24280229741162618
10.287812232971191,10.524315182389932,0.9663633550984068,2.537951623642969,2.2168640181140558,1.5786508101968704,-0.047793854466141955,-0.29939834691716743,2.050058873579411,-0.047390615259063566,0.2506023851817547,-0.08224720874994151
10.307740211486816,10.565795969547557,0.9970788452716108,2.536948520822692,2.1969985546438964,1.6264865995631386,-0.050770745437051366,-0.23914887234578086,2.0731862767544507,-0.0393569179858199,0.2568870644167838,0.31423396175145335
10.327761888504028,10.609692105870907,1.0300240894514952,2.535925752127448,2.1928144601576154,1.668070630978283,-0.051480540916883595,-0.1793343965756179,2.0830365508515802,-0.03168185787567345,0.2532956783844291,-0.17956930161773244
10.347721815109253,10.631298121075142,1.0469737414110525,2.535368269301086,2.183005185400673,1.6937328337948678,-0.05285855907687159,-0.10427648102341847,2.1167637792360243,-0.02431935484339794,0.2589290740973782,0.2816697856474537
10.367901086807251,10.674942296167371,1.08127328227932,2.534306707749647,2.181657376385416,1.7362860662840258,-0.05327420688218295,-0.030760536165460525,2.1362146734267458,-0.017302491178210786,0.2572638979581665,-0.08325880696058441
10.38845181465149,10.696512239321354,1.098815978852701,2.5337487832388392,2.175220477734883,1.759603558792881,-0.05403816562472648,0.04844609665003716,2.1375019259869883,-0.01069142334499246,0.2582665691740287,0.0501335607931086
10.407646417617798,10.783207942837388,1.1709242747730857,2.5315681236762164,2.169316055060532,1.845805182467814,-0.054594774125561435,0.1263037014388745,2.183194291700452,-0.004062474923896675,0.2565901664427477,-0.08382013656405007
10.427722454071045,10.826624580674439,1.2082792293939666,2.5304758404580054,2.1725983057582874,1.8897872117713028,-0.05461259275848892,0.20147752643529712,2.2122821174403535,0.0022241195817937986,0.2541166918049056,-0.1236737318921044
10.447768449783325,10.848202665522168,1.2272592443101666,2.5299420728100452,2.170550050385179,1.91105899044735,-0.05416453920859768,0.2456589307053505,2.2169586884626744,0.007853730755275642,0.25707593249810534,0.14796203465998747
10.468294382095337,10.891665713833005,1.2659234311888459,2.5288607128558946,2.1759000563926514,1.955329054256643,-0.053953702902005636,0.2892415794458643,2.207772851322313,0.013179824228131364,0.2547989801821333,-0.11384761579860125
10.487812757492065,10.913265056284454,1.2855103907087737,2.5283409813115294,2.174146720786186,1.9747364491389956,-0.05321446745681352,0.3066286932481611,2.146899441285026,0.017873029455870396,0.253979241404215,-0.04098693889591498
10.508321046829224,11.000335612534725,1.3661983983608867,2.526257830321823,2.183727794510782,2.0594608364467164,-0.051681636818481876,0.3413803039914977,2.034370543898024,0.022237598231261584,0.2469943822670424,-0.3492429568586308
10.52777099609375,11.04408072808274,1.4077867112401572,2.525228923205627,2.1908973884330725,2.0989770576602096,-0.051195381804780477,0.375468791397745,1.9163561647098573,0.02634558648740675,0.24428247378163537,-0.13559542427035165
10.547737121582031,11.088039275279954,1.4503098414160016,2.5242248960380773,2.2004664010469597,2.140502692614286,-0.050363611631694685,0.40000173701747077,1.7387954938218604,0.030041295691431477,0.24287257903258208,-0.07049473745266432
10.567981719970703,11.132130137671425,1.4934557415259575,2.5232238667923585,2.2086948703194924,2.173490479536507,-0.04972776846293022,0.4225122250673165,1.5597460337810742,0.033504721763503595,0.23550296221639933,-0.3684808408091378
10.587667465209961,11.176527154345404,1.5377366611170493,2.5222041436272797,2.220587395652255,2.216075812869245,-0.04993253736463329,0.40836890156879163,1.3417063809771201,0.03687950000286924,0.23623790117984234,0.03674694817215052
10.607643604278564,11.221019657212285,1.5823120926653906,2.521213082319542,2.22861734400976,2.2407478964104253,-0.04916310486351139,0.3947045513892085,1.1258734531342482,0.04002614754481974,0.23116265204127595,-0.2537624569283192
10.627832412719727,11.221091195781092,1.5825575789578257,2.5211878906759253,2.2310816376594085,2.245832603779051,-0.04997989456759672,0.4084953298413576,0.8681856741033406,0.04301049238884985,0.23425669250337844,0.15470202310512438
10.64777135848999,11.265795387646035,1.627631014353478,2.520197082986993,2.2393795735265023,2.260673636652452,-0.049091647745292566,0.42110314748574573,0.6169948093986196,0.045778547719814724,0.22157813910128388,-0.6339276701047281
10.667721509933472,11.33354376629116,1.6976308795549946,2.5186038151933983,2.2608266726635806,2.320777791355411,-0.05091454649315559,0.46031356721070377,0.45905844188065476,0.04906155212831041,0.2189511682625893,-0.13134854193472822
10.687720775604248,11.401747088545806,1.7682917871480917,2.5170246825948133,2.2797778089906395,2.3566702619426114,-0.05150029015344514,0.49871196301901777,0.2959501014856147,0.052554056148428556,0.20849478578618585,-0.5228191238201729
10.707743406295776,11.447444792141214,1.815473519611724,2.516005406721722,2.290110254461381,2.36096006908433,-0.05041656682513461,0.5340243578092485,0.13307692411007388,0.0557732623726059,0.20132557612509183,-0.35846048305470113
10.727710723876953,11.47051378007857,1.8397430530145138,2.5154477880560795,2.2998965002890133,2.378538292872037,-0.05139381798833467,0.5910772965955786,-0.11339949757383616,0.05895871862238918,0.20434140675911117,0.1507915317009667
10.747738599777222,11.516633528461673,1.887275184567029,2.5144319023367756,2.312255182516588,2.3738850202161994,-0.05018503057200719,0.644132161343576,-0.35035494831373837,0.06187583702527096,0.18810592242875224,-0.8117742165179465
10.767831563949585,11.563092131473109,1.9357809938139083,2.5133912275665953,2.327166267084114,2.3923332429478434,-0.050058855539371776,0.6630985860139263,-0.611733027040739,0.06463285178383121,0.19013436652179827,0.10142220465230167
10.788740158081055,11.609769263007996,1.9834884733729183,2.5124031480021642,2.340604926534807,2.377582449357801,-0.04874076294164635,0.6805111842636155,-0.8614158513437907,0.06713434521798507,0.17942986536113503,-0.5352250580331619
10.80785584449768,11.633231614562163,2.0080039344017426,2.5119123244184047,2.34830826109712,2.3897318667964305,-0.04819931160424039,0.7047619657113202,-1.0382553969305772,0.06927382303853852,0.17955920342078535,0.006466902982515954
10.827836751937866,11.680340236158868,2.0555794741119433,2.5109623241452064,2.362627243626998,2.367255435574835,-0.046794343958659335,0.72676637903259,-1.2082579335267525,0.07118544621966774,0.16284250215028617,-0.835835063524959
10.848094940185547,11.749238027468127,2.1256097329114483,2.509673396763131,2.385691082230737,2.372366187422433,-0.04369605140000523,0.7427272974521778,-1.3670822987179414,0.07236751835070296,0.15642389619808084,-0.3209302976102668
10.86777949333191,11.79710135215903,2.1727733724950706,2.5088140191159307,2.4006875171347235,2.3434896768682707,-0.04223836606636151,0.7565672983161374,-1.519512389152825,0.0733717733510905,0.14268980954466093,-0.6867043326709954
10.887831211090088,11.842951083015723,2.2179429521279452,2.5081046320906757,2.4180235652009308,2.336018885938875,-0.03872486795771205,0.8033999823776624,-1.6574566724081519,0.07350092888684662,0.14342832638754954,0.03692584214443073
10.9077467918396,11.915899272147328,2.2876941768295573,2.50705529813934,2.442875358071315,2.2959433181308437,-0.034217655156015235,0.741933973229583,-1.8794236817581842,0.0727685941993939,0.12405546837620429,-0.9686429005672625
10.927690267562866,11.96490101387341,2.333222940392037,2.506385446718939,2.4570903328285625,2.256231688565196,-0.032770141223894614,0.6793908307541646,-2.0898324584867294,0.0719723293099565,0.11707331162498358,-0.3491078375610357
10.947731733322144,11.989591036556376,2.3559495550621987,2.5061573353443447,2.4658096577288893,2.2414502323322543,-0.029289855470836335,0.5967406165675048,-2.2540800375992016,0.07040381218826847,0.11741139017312996,0.016903927407319053
10.967679738998413,12.039021163157365,2.4003172031607773,2.50558551395623,2.476933854015143,2.1947942997584566,-0.027897542834797,0.5159959853334561,-2.410165973206253,0.0688259801979409,0.10548955914531355,-0.5960915513908205
10.98779296875,12.05907354601651,2.418140925292533,2.5054657477943145,2.4869771032101937,2.184436222248467,-0.024375524124896283,0.43516373276858733,-2.506772037407461,0.06653580915548028,0.10534989999187383,-0.006982957671985979
11.007683277130127,12.154476106739958,2.499850723472031,2.5047530818294907,2.51788103790862,2.1007088466065977,-0.017639483380327302,0.35351937035101655,-2.5888989945708576,0.06299383401296287,0.07503555381346239,-1.5157173089205722
11.027733325958252,12.204899165591902,2.5413417808486463,2.5044126610246957,2.524164481184246,2.0481321468754925,-0.016413989487218943,0.27540845846183465,-2.6683227012983695,0.059576082203627784,0.07386175717431387,-0.05868983195742583
11.047760009765625,12.230563965434762,2.561759289337021,2.5043511628700186,2.5379320263553535,2.0222497565573825,-0.013058297833342704,0.1998488533530854,-2.753176672806943,0.05570605455788884,0.07064864087379741,-0.16065581502582305
11.068016290664673,12.307240503953096,2.6211245321089574,2.504069559273038,2.5562498394942206,1.9370513602613584,-0.009020811681946272,0.15170157340792717,-2.8066526130070923,0.0513007403135843,0.04949436589720646,-1.0577137488295474
11.087799549102783,12.35839268406999,2.6593007663130934,2.503899119379523,2.558811200540621,1.8804006359018306,-0.008037205218963199,0.10460997664942415,-2.8580802503695315,0.04709241020718773,0.042946521202756216,-0.3273922347225122
11.107659339904785,12.41014675702031,2.6959653884941117,2.503850510084752,2.5740045523264374,1.8129605315730526,-0.0046175389936899194,0.037404982462349946,-2.9230739836810633,0.04252365389929795,0.03193477461667538,-0.550587329304042
11.127685070037842,12.46163001594705,2.7316357862171405,2.5037663705786657,2.574108439896439,1.7538715656019777,-0.0038109011455349103,-0.026466289859154106,-2.9853771079129765,0.038176718116655434,0.019510980139893164,-0.6211897238391106
11.147786140441895,12.487681958390032,2.7486961041019096,2.5037855608992965,2.5821873166015608,1.7142101899584776,-0.00190286920330514,-0.08479385031872505,-3.0199940102634986,0.033852711293636754,0.022128117639527822,0.13085687498173293
11.167764663696289,12.539305001776968,2.782374057688086,2.5037539968865716,2.5799321922391525,1.6534735364976514,-0.0012672078519360426,-0.1402437631926414,-3.0534837063675835,0.029749898221796543,0.0020504308710465047,-1.0038843384240659
11.187788963317871,12.59139145823025,2.8143368209743636,2.5038055660500143,2.589883002096378,1.5801362331165518,0.0009880904470120314,-0.14813865833778456,-3.0163799190017526,0.02555665008987169,-0.0017612490112197676,-0.19058399411331362
11.207853317260742,12.64332794905324,2.8451148246717586,2.503845104838479,2.592625244136717,1.5134162644140186,0.0019461846019619368,-0.12765239837333253,-2.8774861909863567,0.02153953252006243,-0.011510585237103133,-0.48746681129416825
11.227743864059448,12.695156112129983,2.874816313571876,2.503888079826082,2.5902475974013206,1.4571558328842018,0.0023386679542656418,-0.11069038657819955,-2.7505188336997834,0.017745589531823026,-0.023979234827598894,-0.6234324795247881
11.247710943222046,12.74719396074703,2.902474822379947,2.503933920882034,2.5935552010938725,1.3776007276469042,0.002353019448192095,-0.13765898859284673,-2.7620372446129418,0.014392528108455442,-0.03372346550885519,-0.4872115340628147
11.272551536560059,12.824968476647578,2.9417883714153374,2.503945398856431,2.589702780509047,1.273512822574816,0.0008105331041638811,-0.19519700090732742,-2.6774518466566066,0.01175462427547598,-0.051242503003645634,-0.8759518747395223
11.287790298461914,12.876719748021776,2.9667284404188052,2.5039637922920295,2.5852386224134096,1.2207537025641821,0.0010205297696292176,-0.25091770660679424,-2.5995615116834347,0.009270360811305143,-0.05896489427780027,-0.3861195637077319
11.307763576507568,12.902584861540028,2.9780666184521585,2.5038882025065967,2.5844266657011987,1.1742879742044834,-0.001395645635328022,-0.13488954559110608,-2.530528242820914,0.007706641680699123,-0.060336606300372964,-0.06858560112863454
11.327760457992554,12.954253755081814,3.001050706710997,2.5038617313446077,2.582823062228266,1.1243398072393243,-0.0012563725924303387,-0.026774367435416575,-2.4648404598881224,0.006235997453229202,-0.07639568577863809,-0.8029539739132563
11.34772276878357,13.031592968757046,3.032081758469917,2.503621951664119,2.5782797496890386,1.0164618671657215,-0.00562006237798997,0.04886361600474677,-2.3614680737852742,0.006086258753404856,-0.09163700716958534,-0.7620660695473624
11.367684602737427,13.083173089403653,3.0519453056549923,2.503510758016711,2.5799651984028005,0.9702182794244709,-0.00549977950789476,0.1187309369896588,-2.2638376382093877,0.005943112292614634,-0.09134777035485486,0.01446184073652379
11.387718200683594,13.083037647081118,3.051589418839338,2.503456402171446,2.5762676185681803,0.9594712495582336,-0.007316788546889145,0.18643175054711805,-2.1898175949094383,0.006282740576824707,-0.09309824059650085,-0.08752351208229925
11.407721519470215,13.18560841002731,3.087118736108542,2.503016605369851,2.5686078651252604,0.8452996984116121,-0.010890279398110804,0.2630361042507012,-2.1376933665880604,0.007579540041452231,-0.12268314700321081,-1.4792453203354983
11.427841663360596,13.237037977613284,3.1036005180140216,2.5028003977282878,2.5745840503531467,0.803042379569142,-0.010726455487175539,0.3335856401667777,-2.088526085390055,0.00878835494634202,-0.12356962229614998,-0.04432376464695853
11.44775676727295,13.262403108656667,3.110942798099781,2.502587495517828,2.567060291735111,0.7657755256577388,-0.013641761849384034,0.38507460260436455,-2.082687959717619,0.010618821188970682,-0.12621355440309356,-0.13219660534717903
11.467670202255249,13.313824526555711,3.1258421490004453,2.5023168996742777,2.5752374859117935,0.7241782782143867,-0.013412146368325458,0.43187289735043305,-2.077073746638276,0.012321711920750005,-0.1347072456566223,-0.4246845626764362
11.487911701202393,13.339183889959113,3.13249377784487,2.502096017437172,2.56844548876658,0.6900060818488628,-0.015706986605473667,0.5019072281209113,-2.0590461535098425,0.014428749771064878,-0.14017743113435177,-0.27350927388647417
11.507720708847046,13.441723856681765,3.15796409472325,2.5013962012018536,2.5746766210939,0.5968412660021808,-0.01705139625675642,0.6054990182295625,-1.9770386372993587,0.016830460519711227,-0.1632864255632489,-1.1554497214448567
11.528162956237793,13.49334491849014,3.1695107139040135,2.501058690621781,2.587743209314871,0.5580763597338775,-0.016692244840314906,0.6995979468890208,-1.9003243746015865,0.019055603663083086,-0.1671794826223154,-0.19465285295332535
11.547810316085815,13.518903617307105,3.174780894806236,2.5008642245535535,2.5850150268671137,0.5334039234496123,-0.017292681797798873,0.7459807915388643,-1.8477679285525224,0.021184152397263536,-0.1669334062132677,0.012303820452386205
11.567836284637451,13.570755915336807,3.185082736506534,2.500522741218757,2.60035006792386,0.4969430112751926,-0.01684911679938732,0.7865709552293725,-1.7989370940506864,0.023144685231110317,-0.1815112305905906,-0.7288912188661456
11.587767362594604,13.622287098605335,3.194256655832637,2.5001570464159126,2.600724210827027,0.45115883748062163,-0.017167497578736264,0.8154812485294842,-1.7696490077316807,0.02500776367006576,-0.18359398684217743,-0.1041378125793413
11.607701301574707,13.674267455786866,3.202797193400339,2.4998115993515944,2.6102519096017613,0.41170743637917456,-0.01688108388309624,0.7796728709935756,-1.7467941241112175,0.026699150067495653,-0.18998673510338682,-0.31963741306046956
11.627754926681519,13.726626030849921,3.210683412150751,2.499479422620028,2.625485549146972,0.37698432152339656,-0.01633145907886996,0.7436590445222866,-1.7258285216805667,0.02823827232704498,-0.20074950506167477,-0.5381384979143977
11.647762298583984,13.77898770326985,3.217655412780665,2.4991585324158585,2.6332139670538006,0.33738881074894544,-0.015701070080106416,0.6777148331109335,-1.717622403588997,0.02947698780554688,-0.20508366554665214,-0.21670802424886837
11.66808271408081,13.858320244543322,3.2269784240356323,2.4987140411582223,2.6540229978474295,0.28528234089533894,-0.014410830539519191,0.5871212375932832,-1.7237953863662403,0.030384177180772038,-0.21627208137855813,-0.5594207915952998
11.687658786773682,13.911512298337154,3.2323388997714226,2.498431956253868,2.664894308433883,0.2507446255637615,-0.013795008433076333,0.5006979169761572,-1.7299774863543194,0.03117966587815645,-0.22446087941854076,-0.4094399019991313
11.707724809646606,13.965205548373795,3.2371328428614445,2.498192539759025,2.682297217680675,0.21993389890468834,-0.0124038136018702,0.4314302427806458,-1.6899391922294316,0.03155115385022698,-0.2278713106169481,-0.17052155992036688
11.727812767028809,14.018933298134796,3.241196060596189,2.4979507944057615,2.690255990836272,0.1865119240192061,-0.011769754211407274,0.3648991666830012,-1.652723273705223,0.031841446552029466,-0.23916212891298194,-0.5645409148016922
11.747759580612183,14.04616232782203,3.243103449295213,2.4978556944599384,2.70233429779078,0.17371425374229116,-0.010856465323050608,0.31966020650714627,-1.6309209657099768,0.03184913747048161,-0.23259072014254079,0.3285704385220578
11.767663955688477,14.100269998300682,3.2462529106478684,2.4976449324995795,2.7082865058254804,0.14129837523956798,-0.010219903828384261,0.2757866246712665,-1.6109721149880765,0.031797233609459824,-0.24254392462875174,-0.4976602243105477
11.787790060043335,14.127718547343946,3.24766892754276,2.4975602370260828,2.7207019307893017,0.12799738968707428,-0.009461269605446933,0.24065720726911824,-1.5607044474084453,0.03153937428571407,-0.2438686173864819,-0.06623463788650863
11.80771279335022,14.20979130175972,3.2508611835961383,2.497302892738032,2.737673904953,0.08317025446242252,-0.008159684944682685,0.2464922069073959,-1.5032198099201077,0.031051013594768695,-0.25440577035327694,-0.5268576483397513
11.827895164489746,14.264594349697566,3.2522275809607772,2.4971458752618956,2.742642532298233,0.05364806583359797,-0.007543784848286934,0.24998645790925297,-1.4496432265343935,0.03053437880865787,-0.2614373247671864,-0.3515777206954729
11.847810983657837,14.319883395729164,3.2530651329294886,2.4970232644774284,2.7566209557369983,0.026561194298299534,-0.006385619738003461,0.21191692254501468,-1.3684937475291283,0.029779835347378575,-0.26355996200150056,-0.1061318617157081
11.86823582649231,14.402864903450787,3.253235896534535,2.4968586454737216,2.7679897223501637,-0.014253460147306577,-0.005115056652847497,0.17247155232436945,-1.2953109917532972,0.02882922540585501,-0.2732424807251026,-0.484125936180102
11.887714624404907,14.458256612730425,3.252696410098825,2.49676204698841,2.771053063700986,-0.0394667868876789,-0.004547948616054224,0.1340288015916378,-1.2267903628316759,0.027882210729322968,-0.2796136072766857,-0.31855632757915586
11.907711267471313,14.486148722471919,3.252214357607367,2.496728063656395,2.77675367033498,-0.051900831200340954,-0.004002643243060533,0.058526121950650996,-1.156479488577082,0.026881119700913034,-0.2755518491863711,0.20308790451573078
11.927739143371582,14.541690648084577,3.250949510398386,2.496653320765553,2.777199213964593,-0.07436428190903592,-0.003474950070466729,-0.01337820169895949,-1.0905955871601343,0.025889854810370688,-0.28707855445658836,-0.5763352635108632
11.947774887084961,14.597599791367653,3.249090029652462,2.49659676872519,2.7857906705882107,-0.09955425506894557,-0.002786909899072177,-0.08157955827674404,-1.0256487162903165,0.024822524241389476,-0.2868669411486513,0.010580665396853206
11.968448162078857,14.68141968740623,3.2455368645118314,2.4965271763116794,2.7906313344062803,-0.13261938230647125,-0.001966524923214842,-0.17604181270374672,-0.9465314279853394,0.0236778238937308,-0.2949301395661559,-0.403159920875229
11.98778748512268,14.7371910918895,3.2427001669259696,2.496492506260713,2.786213089132842,-0.15080513648818206,-0.0015042161597734452,-0.2648514101614305,-0.8729573965604736,0.022557025942492485,-0.3004059868129172,-0.2737923623380656
12.0076162815094,14.765311164075207,3.2410688621246915,2.4964826690838158,2.790513569947364,-0.16119606683580723,-0.0011685633289278462,-0.3566628353207394,-0.8051713359741064,0.02145486371152984,-0.296475015494996,0.19654856589605973
12.027617692947388,14.821044258044758,3.2376881849456574,2.4964635165613944,2.7825081238180207,-0.17666169139874446,-0.000750279608676726,-0.4429758945031401,-0.7421816645154389,0.020377652149275133,-0.3063154506719834,-0.49202175884937027
12.047790765762329,14.877136354376825,3.2338028845502995,2.4964620687530923,2.78664380049235,-0.19639680916043692,-0.00011428577397251366,-0.4781478357720494,-0.7196782034426221,0.019240160292853727,-0.30514215658655397,0.058664704271471635
12.068166971206665,14.960827807667927,3.227488314362486,2.496476355573173,2.780459283482703,-0.22067369520401547,0.0007247434180825064,-0.527921985987883,-0.7234457694425626,0.0180067492501355,-0.31097997995203475,-0.2918911682740388
12.087751865386963,15.016328218833644,3.2229299233473263,2.496494371522267,2.769424438624894,-0.2351764264607943,0.0010728704219807863,-0.5751412356969069,-0.7267521448437133,0.016812419400601616,-0.3165958426389488,-0.28079313434570263
12.107654571533203,15.044203605042467,3.2205431849853907,2.496521947919249,2.769193505365417,-0.2421224865895199,0.001704008935719548,-0.6100838528536612,-0.7184199894749549,0.015570602041797024,-0.3124719889281411,0.20619268554038506
12.127762794494629,15.099463239496815,3.2155575756515424,2.496559061629913,2.756660814457268,-0.2564127410632198,0.0020033690460103874,-0.6428224454697097,-0.7107081272700788,0.014372665183740864,-0.3220784658621567,-0.4803238467007809
12.14771819114685,15.15472246137872,3.2104347202730734,2.496639576632277,2.7503263270583727,-0.2667075506363508,0.0032407687853847444,-0.5918492491465845,-0.7099412190570143,0.012968130644703361,-0.3190735915206937,0.15024371707315076
12.16765022277832,15.2370133982693,3.202259012332752,2.4967708169105802,2.7339329331409163,-0.2838510497119988,0.004422999645705561,-0.5534101522701866,-0.7145742681281563,0.011380636044873547,-0.3250738519179803,-0.3000130198643314
12.187716245651245,15.291583828978357,3.1964387817805284,2.496861450872347,2.7232310560316453,-0.29818650802846697,0.00463534919944166,-0.5171338347691788,-0.7189251457315013,0.009866412937650622,-0.33055826190189563,-0.2742204991957653
12.207626342773438,15.345792927624181,3.190585850522361,2.4969962355263178,2.7083117149022473,-0.30614649889481294,0.005805846616154161,-0.5510666146206504,-0.7202008423938193,0.008193809419022476,-0.3286549701696475,0.09516458661240623
12.228041172027588,15.399846796227791,3.184318783012247,2.4971138839544498,2.696969334274708,-0.3205653231301296,0.005953702774800416,-0.5828107920349875,-0.721722057819036,0.006605753953649247,-0.33731744154985766,-0.4331235690105073
12.24782395362854,15.426620698672691,3.181257625352173,2.497196719415736,2.686312741874339,-0.32267761844657034,0.0066608844436999316,-0.5974012484971568,-0.729956652335062,0.005000446463615247,-0.32911775978482405,0.4099840882516803
12.267667293548584,15.480226556521618,3.174657544277552,2.4973308344986496,2.674228127222938,-0.33735716779646285,0.006745560333021819,-0.6108764007662352,-0.7379604060055035,0.0034813618650366075,-0.33558804223434047,-0.3235141224758209
12.287839412689209,15.506830340598308,3.1714391645749767,2.497421835483523,2.664884624358297,-0.33931222900005636,0.0074314216132852365,-0.6350261901557221,-0.7484630722887872,0.001944291907054536,-0.33586802809199545,-0.013999292882749259
12.307687997817993,15.612813194016882,3.1575894175423027,2.497756086346393,2.63665909027714,-0.3612355513253705,0.008380290969086688,-0.6637457686496724,-0.7521149597194349,0.0002442842174854219,-0.34301159882636467,-0.357178536718461
12.327691316604614,15.665411829827525,3.1502140451478153,2.4979236327809473,2.6231165855716987,-0.37631352409532276,0.008369024234748246,-0.6901182854603755,-0.7556658192948488,-0.0013542286235930425,-0.348264424079884,-0.26264126267596666
12.347733497619629,15.654877502579145,3.1518003820483647,2.4978990977890336,2.6240244407630087,-0.3702278367502456,0.008668514294023528,-0.7350541512802323,-0.7576959228485524,-0.002828957736086695,-0.33766349544817986,0.5300464315852071
12.36766004562378,15.754029825229397,3.1374606488247534,2.4982558794002747,2.5948825128115525,-0.3921690307204175,0.00928209768512516,-0.7878074758001783,-0.7743633034655141,-0.004395871422083253,-0.34952610087909397,-0.5931302715457054
12.387759923934937,15.805766603378304,3.1294613635093795,2.4984405428445733,2.578633163816572,-0.4078098049772211,0.009179364338280538,-0.83645059579391,-0.7894552998882375,-0.005860632249747035,-0.3531740017559386,-0.1823950438422317
12.40768814086914,15.831496120144028,3.1255181813669304,2.498547810812864,2.569656124159014,-0.4110429378943387,0.009560478091741792,-0.8620301544655524,-0.8256315888517131,-0.007264028687660641,-0.3490126064181047,0.2080697668916942
12.427737474441528,15.882715254081644,3.117129924088626,2.4987374788982275,2.552180163309682,-0.4278941070648942,0.009401977339279848,-0.885163016004498,-0.859027909348746,-0.008569998161518934,-0.35909456678605034,-0.504098018397281
12.447768688201904,15.933631733865184,3.1087017285696983,2.498952131953856,2.5351712204375074,-0.43746722336744903,0.009933974849997144,-0.9472175163226035,-0.8627605134643784,-0.009893952236728468,-0.355279642939045,0.19074619235026624
12.467678308486938,16.00930060644118,3.0953892658857924,2.499264713134432,2.5074219214883517,-0.45784704437495444,0.010169969577856906,-1.0099998979820317,-0.8785952154683178,-0.011221091494147892,-0.36257682890832355,-0.3648592984639265
12.487783193588257,16.059243130499762,3.0860556373642885,2.499465784897467,2.486639222435587,-0.4755628085883037,0.009933119519298029,-1.0673806633455543,-0.8926962584795104,-0.012447293842696975,-0.36869624252257527,-0.30597068071258615
12.507688045501709,16.084109588909115,3.0814168642594626,2.4995834203977276,2.47695977149137,-0.4805850739125612,0.01033987096342974,-1.1339472149110665,-0.9704605667721371,-0.013639047301362095,-0.36378568671927347,0.24552779016508985
12.527751922607422,16.133417843074007,3.071606210497384,2.4997874154388824,2.453662757218758,-0.5007179842220234,0.010055984974457838,-1.1948157978905445,-1.041767857356166,-0.014733540346260758,-0.3751418349597251,-0.5678074120225807
12.547801971435547,16.182454144923256,3.061681296390199,2.500016860415058,2.4344312734870415,-0.5142698411456118,0.010542469787902643,-1.2576875225410133,-1.0944217550938384,-0.015853617940593145,-0.37277686496299856,0.11824849983632646
12.568551778793335,16.255079610582573,3.0460135702194,2.5003505724207056,2.4006566026517064,-0.5402956980422505,0.010770329881625733,-1.3248484478795854,-1.145567454147836,-0.01700070146246675,-0.38044575038375195,-0.38344427103766954
12.587768077850342,16.302823626166166,3.034975390710973,2.5005625075175617,2.3735430523927485,-0.5636756240050466,0.010419695791327718,-1.3854221269172045,-1.1915810706646741,-0.01804594788835728,-0.3884010663266695,-0.397765797145877
12.607622623443604,16.32663070568858,3.0295190571743835,2.500694079134513,2.3631152157184387,-0.5690882992928946,0.011042644396376729,-1.4516267124627398,-1.2264353782134383,-0.019125469825322667,-0.3834047423472855,0.24981619896919938
12.6278715133667,16.373598604264874,3.017889889421863,2.500911040078813,2.3334760998720068,-0.5939307800964775,0.010650191654550667,-1.511192071609901,-1.2571284822006663,-0.0201030268484809,-0.3964300187191374,-0.6512638185925956
12.647804737091064,16.420247004784375,3.0061272997263324,2.5011652222751257,2.310018543351913,-0.6094002117975011,0.011362641998252281,-1.542192359729398,-1.174010259957059,-0.021172348019031433,-0.3950135308956342,0.0708243911751616
12.667632818222046,16.48901199175951,2.987425928470572,2.5015232794101405,2.2677732750079906,-0.6412435706588507,0.011469837455575093,-1.587767368454989,-1.0937906256111833,-0.022250132619773853,-0.40553569823920377,-0.5261083671784794
12.68762469291687,16.534047235479218,2.9743874510179777,2.5017481597503615,2.235623755632639,-0.662349796096588,0.011014967305795115,-1.6259731195672977,-1.0174756686274522,-0.023218957950984578,-0.4128419038656457,-0.3653102813220954
12.707601547241211,16.57859762293107,2.9608087312953653,2.501984408774813,2.2071630466985073,-0.6859337728545777,0.010998352560120295,-1.615256910843299,-0.9359124017414299,-0.024089918239980433,-0.4161951966109596,-0.16766463726569647
12.727727890014648,16.62241872162917,2.9469081186269994,2.5021995048045804,2.1749941415892815,-0.7038683995225232,0.010508681065039913,-1.6010632051193832,-0.8581827784608391,-0.024860768072931493,-0.4252209368268889,-0.45128701079646394
12.747689008712769,16.644135938753266,2.939578436023647,2.5023006931339817,2.1603829283170324,-0.7193548571614633,0.010150346941653244,-1.5732777487433476,-0.8250459563848126,-0.025436531473754742,-0.4229562640506672,0.11323363881108328
12.767711877822876,16.708180684188083,2.9173051449468934,2.5025782468417423,2.1114175487581486,-0.7527690814224371,0.008918092442481177,-1.5615634485404843,-0.7743798184209899,-0.02572000138592531,-0.4368296615244165,-0.6936698736874636
12.787740230560303,16.75009768949566,2.9020981305434526,2.5027514491726546,2.0803343801477494,-0.7677724148072552,0.008401420199555965,-1.546145951940575,-0.7263956033304495,-0.025936168727345305,-0.4422878699768966,-0.27291042262400644
12.807637929916382,16.770702780307875,2.8941155474974374,2.5028091424108982,2.0612059366306767,-0.7821988760895885,0.007420057211229452,-1.5634961239830634,-0.6778573165337659,-0.025857782536003297,-0.4433265517264302,-0.05193408747667938
12.8277907371521,16.811613327401105,2.878339115948125,2.502952379502042,2.0298098133779754,-0.7952903581497669,0.006904064358266713,-1.5751866654105684,-0.631680278488009,-0.025734070366262043,-0.4521874095080456,-0.44304288908076916
12.847774028778076,16.851690258080566,2.861887441990051,2.503044729898476,1.9933686229742207,-0.8181679402634936,0.005381901862095531,-1.5707318455688895,-0.6074681446091054,-0.025232487446453917,-0.45817814321813843,-0.2995366855046422
12.867624521255493,16.910672862902846,2.8368171835852625,2.503170104055528,1.9423692179336567,-0.843060343392857,0.003929831033111769,-1.656127527200626,-0.5531327441371373,-0.024454772119536547,-0.46881605576368557,-0.5318956272773567
12.887807607650757,16.949183783103678,2.8198488409723668,2.5032438615633383,1.9084683381250864,-0.8536015445755644,0.003448511530937256,-1.7324705011019867,-0.5014198212970542,-0.023677244220862224,-0.47554200384590883,-0.33629740411116327
12.907728433609009,16.98696205757085,2.8023255439103774,2.5032766834342675,1.8730321357279165,-0.871884147545952,0.0022296175386474874,-1.7532722862516124,-0.4351194223682542,-0.02266360976614167,-0.48238197669754834,-0.34199864258197543
12.927742004394531,17.024070985722606,2.7848050492199548,2.5033168097470653,1.8378130318140928,-0.879958133354116,0.0017863330810183075,-1.7675697091977567,-0.372961338558441,-0.021667807722280604,-0.48578860412013736,-0.17033137112945074
12.947774171829224,17.042416557953885,2.775747048245057,2.503322627190791,1.8216339859345891,-0.8901381892902687,0.0012747138468306516,-1.77391857599534,-0.33056559455555345,-0.02063258428563738,-0.49165783531732554,-0.29346155985940925
12.967681407928467,17.096297525636242,2.7486282619304006,2.5033408743121996,1.7689994943058622,-0.9076504041729322,0.00035430869729412236,-1.7940313432797255,-0.34416575225409074,-0.019479228377980752,-0.504103525719541,-0.6222845201107718
12.98776125907898,17.131317700671197,2.7304055843777664,2.503344139931999,1.7329730278522137,-0.9146580119239478,-2.4008619336562346e-05,-1.8075289851367549,-0.3563646336940005,-0.018357792865221257,-0.5116736548780603,-0.3785064579259645
13.007678508758545,17.1485513555963,2.7210693993815993,2.5033306894017078,1.7151801446121577,-0.9234926308535693,-0.0005457170240795877,-1.7453498187867436,-0.4311212786550541,-0.017209039054183545,-0.5144782425445906,-0.1402293833265178
13.030223846435547,17.18251014321534,2.702508612289791,2.5033164080560457,1.6809131263487398,-0.9328170917355411,-0.0008787068713595351,-1.6809988660182205,-0.5004275239899914,-0.016095829842660298,-0.5225703727793429,-0.4046065117376152
13.047712802886963,17.21566535561078,2.683794417089485,2.503280484149573,1.6435371878224847,-0.94075303184769,-0.001564578237162522,-1.6901246102287455,-0.4754144495089009,-0.014911055057833677,-0.5329821171415401,-0.5205872181098581
13.067631483078003,17.264061478965147,2.655518161436724,2.5032145468993297,1.5899775979964903,-0.9505281667781105,-0.00235833540852492,-1.5229961208748768,-0.482163251104348,-0.013633344148296209,-0.5464665039716201,-0.674219341504001
13.08784818649292,17.29556729832675,2.6364107463618507,2.503164736195963,1.5611431192627885,-0.9602337873040387,-0.0026186426331411047,-1.3613604341107977,-0.4882974452440155,-0.012405641322486108,-0.5566159459891105,-0.5074721008745176
13.10773229598999,17.31087928385667,2.626927153161318,2.5031201978251363,1.5409771297267214,-0.9611105783081759,-0.0032711862787030864,-1.3259005150975531,-0.49178220388370164,-0.011131506204804674,-0.5603205012589121,-0.1852277634900812
13.127641439437866,17.341436091805715,2.6076063997815706,2.5030526300193796,1.5148272621997914,-0.9709732573246029,-0.0034815281386837726,-1.288822616943402,-0.49433191258748316,-0.009911642177961017,-0.5716739424756283,-0.567672060835811
13.147761583328247,17.370829407130444,2.5882672624678995,2.5029241961571667,1.47353976283488,-0.9761991021347126,-0.005121580814556042,-1.2356078700022284,-0.46029223298111993,-0.008383276708126523,-0.585222495724897,-0.6774276624634368
13.167661428451538,17.41413251364862,2.5588494351508917,2.502729524441849,1.4279399671749622,-0.9880845586900099,-0.0064053103554434195,-1.086378900160483,-0.4778147402214377,-0.006643499561833076,-0.6050242012119709,-0.9900852743536914
13.18777060508728,17.44248371503839,2.5389911147617017,2.502600200905143,1.4076595934665417,-0.997799119430612,-0.006521550822205711,-0.9425508453554452,-0.4933073706092073,-0.004995719590311111,-0.6148676383485072,-0.4921718568268174
13.207670450210571,17.46992373076976,2.519064886122549,2.5024191464131302,1.3758078635607556,-1.004545827245488,-0.007860307347013602,-0.8822995620988315,-0.5248331422601823,-0.003160540021443578,-0.6263249788533574,-0.5728670252425072
13.227764368057251,17.497267471947197,2.4988670967256983,2.502261425255548,1.3587688742693962,-1.015325214086288,-0.007906039958951205,-0.8215143265000672,-0.5524653900577442,-0.0014299665344743907,-0.6333291425730212,-0.3502081859831918
13.247766494750977,17.49703858494068,2.498941039899884,2.5022425792143674,1.3508305615106668,-1.0129636339597061,-0.00850933704733315,-0.90716140192848,-0.5515891987958011,0.0002504001954976913,-0.6339984397238645,-0.03346485754216477
13.267623662948608,17.54988710117228,2.4582577107402845,2.5018563922193566,1.3047768119395082,-1.0276657818537944,-0.009605898827373905,-0.8163814036373117,-0.4884869069349723,0.0021287062645615647,-0.6525778935547173,-0.92897269154264
13.287864446640015,17.575825274876333,2.437610726622928,2.501664819305663,1.2893339605926313,-1.0368341149369258,-0.009545523548100681,-0.7283600792983763,-0.4289311564195748,0.003889448600254718,-0.6579650659117413,-0.26935861785120085
13.307709455490112,17.588550148638504,2.427324218959754,2.501549069391704,1.2801518041383662,-1.0381857098792275,-0.010047059296430887,-0.5121049302753155,-0.40459905114711414,0.00558706641182563,-0.6576724180987865,0.01463239064773969
13.327704429626465,17.614064600088913,2.4064811502028696,2.501349353133131,1.2719755948782079,-1.0460438392871194,-0.009919283995236935,-0.30742463762577893,-0.38140065775178766,0.007171879399649717,-0.6604695429044107,-0.1398562402812109
13.348061561584473,17.62649275520186,2.395966114168543,2.501236995232111,1.262607680719424,-1.0505946117484457,-0.01022811307401343,-0.08605989668376969,-0.3366545259351577,0.008661774769333398,-0.6644068339329157,-0.1968645514252465
13.367706775665283,17.675991236977428,2.353516431419494,2.5008007986055283,1.237724993450363,-1.0688413099090872,-0.010730494628687788,0.1688753844881624,-0.4391702805676409,0.010234805666084607,-0.6744181651295329,-0.5005665598308617
