t,x,y,z,vx,vy,vz,ax,ay,az,yaw,yaw_dot
0.1341860294342041,4.978635228952269,-2.435109026482663,2.511935914870882,1.4501671273882735,0.9065829130506093,-0.018349929998444665,-0.05906238896313841,1.4485967963738333,0.0168137408441633,1.727815854222749,0.09091433885262123
0.1542065143585205,5.0226758858486775,-2.4073209577844663,2.5114227297745018,1.4633554176844554,0.9472893334166558,-0.0170338913059828,-0.18471585837663534,1.2823649088107298,0.016458585743236435,1.7510589533174308,1.1621549547340848
0.17434263229370117,5.051897858942142,-2.3881293168673348,2.5110853208994297,1.4584353418557292,0.971351451495286,-0.016708119570565113,-0.3066817195078508,1.1253695072190821,0.016121566080497765,1.7480530612088057,-0.15029460543125595
0.19424152374267578,5.081807313004748,-2.3681662676421977,2.5107545224595857,1.4714175413549575,1.002329711643096,-0.0165283096516582,-0.4242117661592581,1.0636820236033495,0.01587888233505366,1.767653321309501,0.9800130050347633
0.21427226066589355,5.111143125642803,-2.3479110429295194,2.5104271164001104,1.4617812425265044,1.0229875846232035,-0.016213069669623433,-0.5389562165704767,1.0021299434880708,0.01564686439365029,1.7679741385850498,0.016040863777444514
0.23424196243286133,5.124781182858634,-2.338267400901931,2.51025576219615,1.4708976492616368,1.0436921511850035,-0.016841936212752373,-0.5959805053809559,1.0411430275806524,0.015654297723383146,1.7760384680114907,0.4032164713220432
0.2541191577911377,5.166242558136755,-2.30832701684673,2.509771548533774,1.4687367107543294,1.0816674099610208,-0.01691890867873148,-0.6310985901996226,1.0587065893494008,0.015801293007695207,1.7937931056056398,0.887731879707454
0.2743241786956787,5.195488574849197,-2.2864810257576034,2.5094363396304584,1.455737508441577,1.1029723598577703,-0.01660154407427846,-0.6693325187709357,1.0709074233963316,0.01593257123726193,1.7963552440798543,0.12810692371072463
0.2941923141479492,5.210449734595975,-2.275260693501149,2.509273347295365,1.4616377351199539,1.1182723564538695,-0.016333402549540528,-0.6185421113262407,1.2001443378115564,0.01603199968357566,1.8026599451574388,0.3152350538792259
0.3142392635345459,5.239561656180598,-2.252647340038219,2.5089498915619117,1.4496898050992462,1.1434447394519058,-0.016011886643616278,-0.5779229555352939,1.3146757651631498,0.016117249722617504,1.815555672370727,0.6447863606644066
0.33428525924682617,5.254302649175747,-2.241247050646517,2.5088140178985845,1.451589341727232,1.153987004434683,-0.015146635701176237,-0.536682154267536,1.393657953946401,0.01602053423964709,1.8126125338815413,-0.14715692445930184
0.35416603088378906,5.303350143310615,-2.2016360906613315,2.50835288641366,1.4314359659348805,1.1886473844240442,-0.013376473736471503,-0.7225773695251883,1.2727321329326753,0.015612607603267624,1.844028460417439,1.5707963267948966
0.37434816360473633,5.331822437266281,-2.177616371329508,2.508088453089925,1.415205888561046,1.212940538089531,-0.013068163611473765,-0.8988432439218136,1.1575269951974496,0.015221108414288547,1.8369183155975737,-0.35550724099326914
0.39418721199035645,5.360014341664285,-2.1534104496738706,2.5078808553700775,1.398765250418403,1.229384596537691,-0.011568879742193514,-1.0366967368279036,1.0557260312741883,0.014566239580568489,1.8606177370161037,1.1849710709264993
0.4141883850097656,5.387773466093691,-2.1286181545331573,2.507652349007182,1.3767108764988096,1.2495218500378034,-0.011283830342707734,-1.1675941045135612,0.9588041052073744,0.013944087924538799,1.8591319087509186,-0.07429141325925315
0.43422675132751465,5.401770782632183,-2.115939284164253,2.5075586499894267,1.372486208934546,1.2629543652905357,-0.010634881031394545,-1.2789301311286498,0.9193087414041763,0.013268248671561322,1.8695026281014684,0.518535967527467
0.4541323184967041,5.442807510015256,-2.0773403669876696,2.507261593996981,1.3458496458837148,1.2987995346098098,-0.009785730981659045,-1.3631459303070548,0.9019512088266796,0.012525516450772298,1.8887394174112337,0.9618394654882678
0.4743170738220215,5.469446437358396,-2.051185156773855,2.5070683369937923,1.3177741995738308,1.31666273174171,-0.009542310317157281,-1.443813885758286,0.8843249458156317,0.011823206338010688,1.8916372815612572,0.1448932075011733
0.49424171447753906,5.48288555780913,-2.0377762297938,2.5069952699155773,1.3119043598856137,1.3294955558661874,-0.008789169495383935,-1.5214732641571707,0.7135449128295053,0.011046995337883923,1.898362953384538,0.3362835911640438
0.5142154693603516,5.508814393988775,-2.011054505189736,2.506821646410455,1.2807350716903834,1.342140194788336,-0.00857562000904076,-1.59473098924701,0.5525284248768533,0.010315279801615593,1.9115366247482353,0.6586835681848591
0.5341966152191162,5.5345001634229405,-1.9837710117892844,2.506702715766702,1.2584174246003808,1.360819978308949,-0.007107232220930058,-1.5621221494303548,0.40529454057830533,0.009349491198792824,1.91911847354731,0.3790924399537321
0.5547449588775635,5.559358064368983,-1.9564830209434263,2.5065623795796346,1.227468270970367,1.367511457969427,-0.006929410099434745,-1.53344039256078,0.264997662160366,0.008442383618787682,1.9308876267259114,0.588457658930075
0.574277400970459,5.583694209404477,-1.9284398557224955,2.5064636146629926,1.198669995349815,1.3881432146265524,-0.005874400751922214,-1.490411892945342,0.11086609546328441,0.007421122011838825,1.9406736204139827,0.48929968440356575
0.5942318439483643,5.61882196499147,-1.8861820607521487,2.506295568630346,1.1478065866189189,1.4062184489266831,-0.005557786459811624,-1.6440075621706105,-0.06331691593065088,0.00646674374058645,1.9612080430094894,1.026721129775332
0.6144440174102783,5.641439634756722,-1.8580813956637579,2.50618564573889,1.1134868922213503,1.4033054424273546,-0.00543747703328002,-1.7860615197693315,-0.22610649465353064,0.005574414265629954,1.9618924146049324,0.03421857977214948
0.6342663764953613,5.6523366879570185,-1.8434971691670128,2.5061238593259434,1.0900644661168508,1.4157029199433013,-0.0056064535938489075,-1.9738662216312957,-0.3847918143964253,0.004861039061191608,1.9725782516733954,0.5342918534231744
0.6552507877349854,5.68428750199144,-1.800540690224872,2.5059688554663846,1.0333562594254506,1.4218852274911595,-0.005089768771986331,-2.186710361687833,-0.4954027009221559,0.0041309381491782945,1.9919945035619442,0.9708125944274171
0.6743087768554688,5.704503982090222,-1.7722090409683569,2.505867840179982,0.9876411709571709,1.410937530035065,-0.005014022481903842,-2.381891596079914,-0.5980562189718666,0.0034521325696664096,1.9946724430419067,0.1338969739981266
0.6942944526672363,5.714532701297415,-1.7576106485736291,2.5058603756296014,0.9700911731309243,1.4187859977004926,-0.003710102016224829,-2.5819181448519144,-0.6759138444588253,0.0025508939654865187,2.0024371062170143,0.38823315875538
0.7142696380615234,5.733405690701336,-1.7293749605365971,2.5057866269235456,0.9165997828298516,1.4045459621720564,-0.003667557593091468,-2.764320944399523,-0.746969721184729,0.0017141660350153084,2.015408399855132,0.6485646819058832
0.734285831451416,5.752008840480728,-1.7007641839859415,2.505829592533488,0.8814102291378623,1.4056656687574067,-0.0006546104625952008,-2.852170503338073,-0.7590427253645958,0.00024222457044718317,2.0232570771795437,0.3924338662206095
0.754176139831543,5.777658841852256,-1.6586912293441511,2.505908034532521,0.808886986991365,1.388272994037549,0.002153209638794006,-2.921012563177102,-0.9076608345479514,-0.0017935067581251666,2.0452596906029976,1.1001306711726944
0.7760577201843262,5.793248301288209,-1.6311166546271891,2.5059506114966927,0.74986346330475,1.3687259573933983,0.002098178616067101,-2.979665295085857,-1.045221175526829,-0.003686013148191071,2.0484751515752286,0.16077304861152886
0.7943041324615479,5.808051364169866,-1.6036887488106468,2.506132629735395,0.70136548075653,1.3532199160265725,0.005464233100350218,-2.7649324982290615,-1.2146706698045382,-0.006198872246616032,2.0647550246580533,0.8139936541412096
0.8142366409301758,5.821539434447747,-1.5768778529163954,2.506240516192167,0.648119532433292,1.32735322649261,0.0053166405568771165,-2.5615332811010454,-1.369610908418945,-0.008530551423586748,2.0712331234320382,0.32390493869924875
0.8342466354370117,5.827196414796252,-1.5647402965167208,2.5063539994922515,0.6240251377978908,1.3210828725883654,0.007044184101999505,-2.354252253363776,-1.4985116784248602,-0.011000593302967182,2.075590912290335,0.21788944291483148
0.8548212051391602,5.844748486373012,-1.5240840142764287,2.5065859001348327,0.5334786396708256,1.2848418635107832,0.0070821313326719084,-2.152788794343568,-1.6887879391074445,-0.013289348921996468,2.1045370394272584,1.4473063568461564
0.8743941783905029,5.855000279027098,-1.4987366177369932,2.5067247413543834,0.4923287545926961,1.249330080361446,0.006794962456018698,-1.964345247644291,-1.8591100303889632,-0.015397873470691858,2.0993470250283828,-0.25950071994376156
0.8942112922668457,5.86235702900982,-1.476031142748199,2.506783984108143,0.42668680609377985,1.2281024820751476,0.004808835134258574,-1.8735993758578573,-1.9979879144446313,-0.016732861570183628,2.1264191404324944,1.3536057702056015
0.916363000869751,5.870521828304191,-1.451877078261546,2.5068767316011282,0.39007788461316795,1.186898878312742,0.004461886791784001,-1.7881690687641765,-2.119522518306604,-0.017941128522456457,2.1220038917744297,-0.22076243290320985
0.9341344833374023,5.876262059809408,-1.4291670101810348,2.50686057354532,0.32164012407636106,1.1600748646706576,0.00168049599194364,-1.878828875927364,-2.1121140646105503,-0.01826777806367507,2.150980452305282,1.4488280265425812
0.9541239738464355,5.881901462356539,-1.4062746769597076,2.5068615237073892,0.26914593484776284,1.1199839922807502,0.0003619554566306,-2.0403786951904253,-2.291220297650038,-0.018236635756748262,2.1525066432017432,0.07630954482309438
0.9743411540985107,5.886866299969394,-1.3843441981551188,2.5068651197650014,0.22685011942604963,1.072532187760989,-2.0999252906046892e-06,-2.186697415759584,-2.4507391315316847,-0.018161728808314407,2.1695729816656257,0.8533169231941029
0.9942586421966553,5.88863564342593,-1.3736326884946053,2.5068437275771513,0.19358967307927893,1.0507349550725835,-0.0006467619095805796,-2.29936138411926,-2.477255010693736,-0.01788807141808309,2.1723934139436762,0.14102161390252554
1.0142614841461182,5.892040672746886,-1.353114702568053,2.5068272343727314,0.14657882817652831,1.00100880973343,-0.0010015532256480463,-2.3996962319288313,-2.493708588569444,-0.017586497384251866,2.192215747208026,0.991116663217495
1.0342166423797607,5.894553811997853,-1.333434213036726,2.5068663520861376,0.09979094907246507,0.953889417101236,0.00036180339119840625,-2.525119861079674,-2.5489308033336795,-0.017625137370463232,2.202901648739134,0.5342950765554022
1.0541789531707764,5.896591639189532,-1.3060360141297784,2.5069265013260074,0.02823858092351691,0.8753913084019388,0.0014526773156551976,-2.647286751324734,-2.51802575121249,-0.01794395220791217,2.234317575275032,1.5707963267948966
1.074270486831665,5.8966194583975655,-1.2890295823896445,2.506951948110245,-0.02582074590848776,0.8253648604480885,0.0010911563419579288,-2.7565181074076492,-2.484129017629226,-0.018197414323980764,2.249817805699964,0.7750115212465936
1.0942506790161133,5.896403791057157,-1.2811313128661324,2.5070045505626957,-0.04931988936469842,0.7935680496733329,0.0020608117391062975,-2.884756370691774,-2.4852418689176434,-0.018628111193512945,2.25701100066786,0.35965974839480275
1.1142029762268066,5.893926193932178,-1.2588294214657367,2.5070812191932372,-0.12787917148552702,0.7083124356551558,0.002154965878509859,-2.963408146464821,-2.4205935915914583,-0.019057861841586497,2.2884269272037576,1.5707963267948966
1.1343941688537598,5.890771313489827,-1.2451427484543067,2.5071204820325876,-0.18782934036422255,0.660585819944533,0.001770134165087648,-3.029554415941397,-2.3513102029868573,-0.01941306533736939,2.3198428537396554,1.5707963267948966
1.154207468032837,5.886874073863495,-1.2331588383192549,2.5071798664578413,-0.23611825211341617,0.594804583763595,0.002017631730239983,-2.9524375597638883,-2.2738945896076976,-0.019754618868961033,2.351258780275553,1.5707963267948966
1.1744370460510254,5.881566345061523,-1.2217124161316364,2.507216248935472,-0.29439874579710323,0.5500922449777281,0.0016197123591619909,-2.875673442502943,-2.19751164461385,-0.02002575566435599,2.382674706811451,1.5707963267948966
1.1942880153656006,5.878687132212051,-1.2169210036227147,2.5072228578158624,-0.31690174635518154,0.5118470242489075,0.001086912957779717,-2.7923133774551956,-2.088186626601434,-0.020086876789722756,2.4140906333473486,1.5707963267948966
1.2142589092254639,5.871796143384129,-1.2070945861595994,2.507240577312426,-0.3719225155164799,0.4711475618292025,0.0006850113404505447,-2.7099274047674853,-1.9823337926060534,-0.020094512622550905,2.4455065598832464,1.5707963267948966
1.2342584133148193,5.863688873627665,-1.199157571781209,2.5071533982886796,-0.42784216921407153,0.4056173761505016,-0.002333830365112577,-2.435807787821175,-1.7876795191715826,-0.01928779663624115,2.476922486419144,1.5707963267948966
1.2542064189910889,5.849370899162061,-1.1886124151970041,2.5069547509712446,-0.5103895576587366,0.32987204994133784,-0.006430604328405018,-2.1720750292631124,-1.6098585386640079,-0.01750233941326466,2.508338412955042,1.5707963267948966
1.274357557296753,5.838745565297782,-1.182325448888068,2.506822754071482,-0.5513119137520529,0.29939352649179196,-0.006763358671370879,-1.922495780615111,-1.439172840984909,-0.01578422825271896,2.5397543394909396,1.5707963267948966
1.2941887378692627,5.826357582336825,-1.1779563375341355,2.5063900466828497,-0.6137852609507468,0.23761898614426555,-0.014695428416954594,-1.7522281026311253,-1.370063284777079,-0.012172115259658644,2.5711702660268374,1.5707963267948966
1.3141522407531738,5.813274713950742,-1.1739728496474213,2.505951055891012,-0.6625682433370642,0.19472286538040756,-0.0196708714772377,-1.5620671853856776,-1.254789241823338,-0.007586894029488684,2.602586192562735,1.5707963267948966
1.334219217300415,5.799723097484959,-1.170321843166525,2.505556413615468,-0.6919938052395193,0.17075019455640444,-0.01977894594615986,-1.3821842314183437,-1.1430647514230978,-0.0032637599080843523,2.634002119098633,1.5707963267948966
1.3541765213012695,5.784373407399874,-1.1683095854665515,2.5047901099442704,-0.7490329248966778,0.12029973172973654,-0.02893906847035088,-1.223758755230349,-0.9781627968586467,0.0030006347768129233,2.6654180456345307,1.5707963267948966
1.3742797374725342,5.769158105122833,-1.1660886376998145,2.5042123268593617,-0.7719993769321447,0.10231761357392842,-0.028819652579255388,-1.0743777747656607,-0.8213893186382234,0.008877012736924983,2.6968339721704284,1.5707963267948966
1.3944034576416016,5.760640533451796,-1.1658114550334562,2.5037192309459186,-0.8027628987629195,0.07417157284126995,-0.034468844168339376,-0.9660583314101086,-0.817740033511524,0.015550641435620514,2.728249898706326,1.5707963267948966
1.414196491241455,5.735398643984078,-1.1646556182005967,2.5025162167774844,-0.8518752586573285,0.030046205789294796,-0.03888458629324652,-0.940337082159679,-0.8194353249220423,0.022942489420713943,2.759665825242224,1.5707963267948966
1.4342167377471924,5.717868589779978,-1.1644986875619319,2.501667811601265,-0.8806315453713063,0.005315346623186709,-0.04083912221782292,-0.9356439110988223,-0.7131819007461218,0.030284472266936032,2.7910817517781217,1.5707963267948966
1.454164981842041,5.699855058619699,-1.164768491964764,2.500804597573299,-0.9062768137711238,-0.016943060464863605,-0.04188965057909981,-0.9325728545524029,-0.7439437275538388,0.03736240661868694,2.8224976783140194,1.5707963267948966
1.474259614944458,5.681543311324463,-1.1652579762333029,2.4999747234944665,-0.9248811247859906,-0.03209352568046176,-0.04107585268738704,-0.9275367701510367,-0.7703933696016942,0.04393399180716002,2.853913604849917,1.5707963267948966
1.4941930770874023,5.672052456047168,-1.1659077111044764,2.499518313418305,-0.939400977421201,-0.048017338470292104,-0.04183621523456084,-0.9356793960698437,-0.8146829476558034,0.049946449805970676,2.885329531385815,1.5707963267948966
1.5141501426696777,5.653076860329827,-1.1670336932589407,2.498691955956984,-0.9581789290578656,-0.06471163889844062,-0.04078103597209083,-0.9417808801821079,-0.8539134274044055,0.0554951149270391,2.9167454579217127,1.5707963267948966
1.5342555046081543,5.633726274550466,-1.1685448376945973,2.4978908527463473,-0.9758894729567055,-0.08275411888303977,-0.039372012507652404,-0.8826479625447704,-0.9289619594565328,0.060143440439649046,2.9481613844576104,1.5707963267948966
1.5541462898254395,5.604154249081194,-1.171259175242125,2.4967798352849195,-0.9986417670884428,-0.10568907256051818,-0.03625316510308953,-0.7832324754776554,-1.013100152907208,0.06383297026072551,2.979577310993508,1.5707963267948966
1.5742261409759521,5.584031061688375,-1.1735807813461523,2.4960677670941203,-1.0133677340988325,-0.1267251068057972,-0.0349425148668889,-0.6904585218707874,-1.0891737590627242,0.06717485107957487,3.010993237529406,1.5707963267948966
1.5943138599395752,5.573935566722149,-1.174587441149246,2.4957857368502965,-1.017596347330361,-0.12855753097151107,-0.032395620604371476,-0.6065677008572428,-1.104253116065463,0.0694541420275974,3.0424091640653037,1.5707963267948966
1.6142504215240479,5.553467736630874,-1.1773802019601358,2.4951518536173913,-1.0289191519664098,-0.1507524893929127,-0.030986008500131727,-0.5263137140557096,-1.1144369231026467,0.07146251830573776,3.0738250906012015,1.5707963267948966
1.634265422821045,5.532687095255213,-1.1799724488846675,2.4946537504064583,-1.0408680161550237,-0.1575457399365756,-0.0268445505950617,-0.3862704486631098,-1.179630227201957,0.07222483611295058,3.0850634233749705,0.5619166386884755
1.654104232788086,5.5011592518182075,-1.184822445126439,2.4939548647355485,-1.0562744629987535,-0.18251907629590025,-0.02255781791431745,-0.3990956246582113,-1.331008761383244,0.07202845460937632,3.082395331652057,-0.13340458614565787
1.6743128299713135,5.479952994997723,-1.1887483317336935,2.4935180947509177,-1.0644001655365947,-0.21052178398028168,-0.02112024832740149,-0.4137784059664044,-1.4666749620553483,0.07170818717359179,3.0949613488955006,0.6283008621722042
1.694157600402832,5.469267200148359,-1.1904543038658857,2.4933625056736965,-1.0669145675393668,-0.2127816016345811,-0.019057411473653713,-0.18232531441210734,-1.6231503539168046,0.07084911232272131,3.0815356039279624,-0.6712872483769061
1.7142512798309326,5.447906987855903,-1.1950441374327518,2.4929954658945648,-1.0683940256789277,-0.24666618804888008,-0.017649701994991114,0.03147262354337937,-1.7624873443918148,0.06990849579880633,3.101457084548356,0.9960740310196448
1.7342908382415771,5.426458472196172,-1.1992063002577944,2.492682298823183,-1.0701403222007624,-0.25458729828498683,-0.015710529542402662,0.1253049190094451,-1.920957474526674,0.06857580852774992,3.084552531783581,-0.8452276382387547
1.7541546821594238,5.394162778200496,-1.2068595290464887,2.4922799471289463,-1.0720466378027231,-0.28907944041837835,-0.012450893511798091,0.29793713047760795,-2.054135498569434,0.06667436914051436,3.0936173000015135,0.4532384108965948
1.774275779724121,5.372792109055202,-1.2130600041912964,2.492044136795214,-1.0645001460988588,-0.3313575695032165,-0.011136515665934885,0.4539834667067993,-2.1709909194920454,0.06476165082295446,3.106409192088856,0.6395946043671552
1.794177770614624,5.361908051861608,-1.2156988486463884,2.492019438322862,-1.0655274796684866,-0.331988657875229,-0.008081560186607,0.6865903459168059,-2.299360331538348,0.06223218362733929,3.0878666074266476,-0.927129233110402
1.8141591548919678,5.340749193244114,-1.2228062252708198,2.4918700866817405,-1.049658371336032,-0.3791219918892597,-0.0068619182214314945,0.8966032553328216,-2.4112634865053204,0.059737899416764814,3.104472767841303,0.8303080207327618
1.8343398571014404,5.329843881971349,-1.225925190264862,2.491902456542943,-1.0522451764176997,-0.38109144818452256,-0.00040422213245241067,1.0677379758903034,-2.437930438182809,0.43639471339311264,3.093853819433205,-0.5309474204048703
1.8541758060455322,5.287670643707008,-1.2420718429887794,2.4919622842435203,-1.0313384024747962,-0.45330895815143746,0.00879966638385439,1.191620919688695,-2.4212016761097175,0.3922907281437196,3.1089059075110264,0.7526044038910884
1.8743298053741455,5.267289934177209,-1.2516207334938112,2.492213899639739,-1.0063544605765025,-0.5014968583356044,0.016221786510579216,1.3050520476368686,-2.396235479937477,0.35026401328994305,3.1185292272539114,0.48116598714424974
1.8942382335662842,5.25689023385219,-1.2563850791127242,2.492290727843686,-1.0034727276810014,-0.5145869762577387,0.016820614581294437,1.4187464509861745,-2.2979949164056515,0.31277386402628526,3.1007232019248576,-0.8903012664526644
1.914262056350708,5.23711159226713,-1.267129780054081,2.492687285818022,-0.9740467316442305,-0.5595498080494665,0.022716215648180146,1.5221603237628196,-2.198003352486504,0.27708309369521533,3.1096755560570735,0.44761770661081446
1.934269905090332,5.227091656555189,-1.272751846078078,2.4929828564023344,-0.96797612492707,-0.5783847524942984,0.026912425258113628,1.6040510588030688,-2.044674860953915,0.24430086772955584,3.1082982803062915,-0.06886378753911959
1.954409122467041,5.189222448336907,-1.297956659045153,2.494464556152911,-0.913345684533473,-0.6702004197531144,0.041640164441279,1.6759141598540759,-1.8653882890167373,0.21081712156845295,3.115304633515695,0.35031766047020074
1.9744207859039307,5.1712950867216785,-1.3117220568338186,2.4953373772692484,-0.8791789431665942,-0.7057593079782764,0.045536094743490116,1.7393778641015256,-1.6913714787937646,0.17906078118789587,3.1196026009591327,0.2148983721718789
1.9942338466644287,5.162491401921911,-1.3193292861018522,2.4959159714061947,-0.8634402986634336,-0.7364056693954902,0.05028324400017859,1.8511237067323005,-1.7156552243387058,0.14965223994957774,3.102812450744864,-0.8395075107134664
2.0143089294433594,5.145599500930158,-1.3344016797170921,2.4969496854115527,-0.8254284162605295,-0.7708834404555001,0.052995395515853416,1.9475460725293543,-1.730583974130995,0.12182337001613404,3.1208840702168494,0.903580973599305
2.034235715866089,5.129353508109013,-1.3510899424218081,2.498199263642697,-0.78753138308849,-0.8301548355234397,0.05924355808731299,2.194787713408835,-1.9981220189884854,0.09539743547705287,3.095895127414966,-1.2494471400941842
2.0541586875915527,5.106555831460871,-1.377127299771296,2.5001273799389265,-0.7257283715748215,-0.8968722129552731,0.06503473448254675,2.2850079333168356,-2.122754270922608,0.06972162982788845,3.095007665695279,-0.04437308598437273
2.0743069648742676,5.09250369695192,-1.3954965517357418,2.5014403820612126,-0.6792230937078251,-0.9403985654127297,0.06618486490485156,2.363608701746441,-2.226438644484278,0.045537226947235346,3.10022766125498,0.26099977798506035
2.0941343307495117,5.085688014571738,-1.4049300402609233,2.502251831444354,-0.6587553641897798,-0.9600746966412848,0.07073730571044343,2.443103439081603,-2.238298294518626,0.022944205365647348,3.068811734719082,-1.5707963267948966
2.114769458770752,5.066920728704705,-1.4344955856275003,2.504564558658016,-0.5875381380540237,-1.0199667721296395,0.07632597345871647,2.521198323913276,-2.1824617424999437,0.0006688736387144158,3.054081845361984,-0.736494467854909
2.134197950363159,5.055678782285058,-1.4553273243439693,2.506089797420121,-0.5364380035418888,-1.0629966489425475,0.07612833945352468,2.586754219243311,-2.1193306664042395,-0.02020065152845211,3.0646217122652786,0.5269933451647502
2.154149293899536,5.045502733368893,-1.4769350139263895,2.507794115358422,-0.4832268520048612,-1.1041354775848489,0.07997847841780248,2.6170706947653386,-2.0693847026911922,-0.03984087397115315,3.033205785729381,-1.5707963267948966
2.1743669509887695,5.036363159344337,-1.4994278901479716,2.5093844734805346,-0.43066085092713774,-1.1449604035800631,0.07899625726172646,2.6379850899121666,-2.0118665399524374,-0.05816434606755119,3.0292535520985915,-0.19761168153946684
2.194185972213745,5.0284746185814075,-1.5230788474065913,2.5110373880709513,-0.37354828225574704,-1.1950492002743751,0.07964604352609543,2.5216257014432166,-2.08393947402251,-0.07471204563194174,2.9978376255626937,-1.5707963267948966
2.2142996788024902,5.021499945987383,-1.5474005057330154,2.5126143230416083,-0.32432503899042625,-1.2372958936543013,0.07799626066663483,2.399811560455797,-2.137726760860317,-0.09007038112776555,2.991015142849877,-0.34112413564086896
2.234262704849243,5.0186758371370805,-1.5600967622982465,2.5134101077734825,-0.2934196044323925,-1.2646076389892353,0.07749920157475958,2.1505264302170373,-2.149670246909489,-0.10347006466470222,2.959599216313979,-1.5707963267948966
2.2541542053222656,5.011506481461984,-1.5990034207694055,2.515692405760065,-0.21391614713217794,-1.3276372063060156,0.07431078586936245,1.581178292031533,-1.9952681926032618,-0.11530596195491948,2.9281832897780813,-1.5707963267948966
2.2743234634399414,5.007507901900554,-1.6259449747012378,2.5171548200725207,-0.18774229546258603,-1.3660068452261542,0.07189443767669433,1.0410223839851094,-1.8418665144248219,-0.1261686747953825,2.8967673632421835,-1.5707963267948966
2.2941372394561768,5.005831393691314,-1.6537220859435873,2.518425603286763,-0.12014804981885924,-1.4051711001650897,0.06511355310803622,0.6885862547028085,-1.7481717642684125,-0.13413560715471384,2.865351436706286,-1.5707963267948966
2.314354181289673,5.004597719575257,-1.6823484457528117,2.519556621263535,-0.07187821886874934,-1.447969920296456,0.057490267857025,0.6881938087858595,-1.9956427612220582,-0.1397038151124419,2.833935510170388,-1.5707963267948966
2.3343091011047363,5.003297541573924,-1.7117218068474063,2.520678146273252,-0.0581558993406242,-1.4900805878023993,0.05464577327208363,0.6833009630696323,-2.2099776165292164,-0.14464204799006022,2.8025195836344903,-1.5707963267948966
2.354217290878296,5.0046318397985745,-1.74210302275612,2.521329054039188,0.010055658513641028,-1.535597164686344,0.04176695346298775,0.4288939141829145,-2.158027283044044,-0.14571914920046908,2.7711036570985925,-1.5707963267948966
2.374284505844116,5.004902378456832,-1.773242526156362,2.5221351956708498,0.016190556281662376,-1.578141390547606,0.03884482761189115,0.18659479365580414,-2.0944984203939447,-0.14643395730906747,2.7396877305626948,-1.5707963267948966
2.3941614627838135,5.00687147968325,-1.8049527070955673,2.5226738875057926,0.0600004275812831,-1.6136334188890475,0.031001810275868322,0.2197877653877199,-2.095395420663982,-0.14501304118524877,2.708271804026797,-1.5707963267948966
2.4141170978546143,5.008606941595342,-1.837603543928795,2.523213876003755,0.0792583449986741,-1.6546100641127592,0.026431372118468705,0.05990390847721835,-2.141714507357354,-0.14274352035504645,2.6768558774908993,-1.5707963267948966
2.434195041656494,5.0101937169384945,-1.8711262325148152,2.5237141136520083,0.07890531331619122,-1.6977505541418307,0.02360046221197453,-0.09426016954389976,-2.1692519485800283,-0.14032276969415744,2.6454399509550015,-1.5707963267948966
2.4541382789611816,5.012857093267246,-1.9054439674441503,2.5240473998182087,0.10253635712022305,-1.7377357505637634,0.018124184880630844,-0.34244127442913785,-1.9615361067220993,-0.13668601284801982,2.6140240244191038,-1.5707963267948966
2.4743709564208984,5.014823491616267,-1.940577023817264,2.5243827916354116,0.09332307165904422,-1.7748697139495664,0.015427309028735337,-0.5765676835036191,-1.7514874757332224,-0.13299242022756794,2.582608097883206,-1.5707963267948966
2.494208335876465,5.017799035668018,-1.9767077415025986,2.5245891581756332,0.11132254469920544,-1.8189267224344579,0.012670420916413756,-0.7584770056069686,-1.8108489813749584,0.08436905564188969,2.5511921713473082,-1.5707963267948966
2.5142102241516113,5.019862265823084,-2.0134514182571337,2.5248730846292626,0.09443411201812368,-1.8555734373273747,0.016390509432159826,-0.9283891210068698,-1.850604146236682,0.28486113182692974,2.5197762448114105,-1.5707963267948966
2.534274101257324,5.021572614471227,-2.0324437625005327,2.524880973467418,0.10460508399244171,-1.8809603719831645,0.01394782726985936,-1.3371670220721523,-1.5219974879432008,0.24649972958726077,2.4883603182755127,-1.5707963267948966
2.5541627407073975,5.025045313040826,-2.0899678674003836,2.5251804627069276,0.09112059456780491,-1.939055361107097,0.01503516733817807,-1.3600205048105303,-1.5421097702721,0.2116584338909639,2.456944391739615,-1.5707963267948966
2.5742990970611572,5.026594305270797,-2.129057770520956,2.525521269095616,0.06370964321002456,-1.9699378223540223,0.01893558895066904,-1.3807163327562306,-1.5429815867629668,0.17869298282857987,2.4255284652037172,-1.5707963267948966
2.5941619873046875,5.0278637291969535,-2.149242985248635,2.52567379731335,0.07108068293622442,-1.9985973815305549,0.019400830587139543,-1.1364087519190407,-1.7761150411224833,0.14948019323520248,2.3941125386678195,-1.5707963267948966
2.614238739013672,5.029073497209042,-2.189583998159743,2.5260898442430104,0.050653945222070305,-2.036168135828849,0.02211192303922511,-0.9090532426608948,-1.975398945366822,0.12189779323705008,2.3626966121319217,-1.5707963267948966
2.6342687606811523,5.02994226864761,-2.2307234963197398,2.526687921282762,0.029281597408927183,-2.0738303198262487,0.029172087204135604,-1.02442563238432,-1.9275827987188532,0.250650127757442,2.331280685596024,-1.5707963267948966
2.6541337966918945,5.029816273180712,-2.2934794833003087,2.527708894906312,-0.01722802249506129,-2.1214084983849486,0.03702271589066803,-1.0464833959818178,-1.800472649462507,0.2093354766638885,2.299864759060126,-1.5707963267948966
2.674274444580078,5.0292609857600965,-2.336258922816744,2.5284885769611902,-0.038371559571249596,-2.1560884895923684,0.04081541431114126,-1.0677352484618812,-1.666388406419149,0.1703120543778394,2.331280685596024,1.5707963267948966
2.694176197052002,5.0282678643974785,-2.3577264959176336,2.5289472363986962,-0.06427270296852387,-2.1673771032678557,0.043528452678495574,-0.9979436322942815,-1.5708454427171745,0.1351735151826265,2.299864759060126,-1.5707963267948966
2.714271068572998,5.026787235190964,-2.4013814117585515,2.529842599615481,-0.08357346385855675,-2.197767768458417,0.04589752150245138,-0.9329152730517176,-1.4668371205155222,0.10206851000439862,2.2684488325242285,-1.5707963267948966
2.734295606613159,5.0241519128145855,-2.445907142515278,2.5307996369708374,-0.12187119847024193,-2.2342672997427,0.04797127359100562,-0.9436123898724024,-1.4005422413827535,0.07224289626044829,2.2370329059883307,-1.5707963267948966
2.754115581512451,5.019558316668839,-2.5138888117084965,2.532299418573159,-0.16317078553290482,-2.286251234758273,0.050743241053704986,-0.7460972447678748,-1.4987432037095556,0.044361607769644186,2.205616979452433,-1.5707963267948966
2.7742414474487305,5.016158107287319,-2.559918872704418,2.5333213843251183,-0.17624104204422184,-2.3169986194971672,0.051366202116023794,-0.563357353217807,-1.5718824250218295,0.018221333009108703,2.174201052916535,-1.5707963267948966
2.794196605682373,5.011470502129051,-2.606666681990892,2.534382796161679,-0.21458200034367697,-2.34891549464158,0.052207579435695116,-0.5135382931476264,-1.5218321279205487,-0.00510271081234048,2.1427851263806375,-1.5707963267948966
2.8143553733825684,5.007079325373125,-2.6539453985538968,2.5354244497697973,-0.22437959518912126,-2.378747985795939,0.05188518429775163,-0.46671281366260214,-1.4593864390510043,-0.026882438661249227,2.174201052916535,1.5707963267948966
2.8342530727386475,5.003897752218632,-2.677587517989145,2.535946826607537,-0.25637644018558936,-2.385896696962463,0.05158266560602791,-0.6269637802752023,-1.322223687534536,-0.0459020100257794,2.1427851263806375,-1.5707963267948966
2.8541016578674316,4.995201120956956,-2.749662868498305,2.537470985573407,-0.29482870324545163,-2.420896264561567,0.049907155839458386,-0.5971765648922865,-1.0422534775770338,-0.06297492509028854,2.1113691998447397,-1.5707963267948966
2.8743526935577393,4.98918714595815,-2.798270952127551,2.5384554586434023,-0.3064662883560827,-2.43900364902475,0.04848743611094522,-0.5664248042649803,-0.7697173495213046,-0.07878994995790811,2.079953273308842,-1.5707963267948966
2.894131660461426,4.982230833581871,-2.8476096904201382,2.5394143364144877,-0.33528279279679557,-2.467162095002781,0.046929721902689105,-0.5834756641849941,-0.8612602561311891,-0.09230356381807596,2.048537346772944,-1.5707963267948966
2.914212703704834,4.975407474173625,-2.8971300890069043,2.5403336238929897,-0.3471014499265444,-2.485103366522309,0.04495761202330586,-0.5979669297775391,-0.9289534043249673,-0.10472819461776053,2.079953273308842,1.5707963267948966
2.934262752532959,4.9715621100489145,-2.922460468295881,2.54077149391074,-0.36267899938796216,-2.5040253617107275,0.04363384968168785,-0.586961455594516,-0.6645163947883473,-0.11515698639618573,2.048537346772944,-1.5707963267948966
2.954148292541504,4.960123303723724,-2.998132471099773,2.5420134238659675,-0.3891735109637488,-2.5299552550927955,0.039624734283547895,-0.6466041620026025,-0.5068116009287104,-0.12385812247547821,2.0171214202370464,-1.5707963267948966
2.9742605686187744,4.952206793478642,-3.0488221398885815,2.5427806093570933,-0.4026592353322102,-2.5384670822756323,0.0370676344791594,-0.7011223267348943,-0.34345418075877326,-0.13171259733936097,1.9857054937011487,-1.5707963267948966
2.9941389560699463,4.943664909595016,-3.1000146068269223,2.5435106812801944,-0.4252969288438117,-2.553373784281347,0.03484695862117445,-0.7456246929835858,-0.21680037870280003,-0.1379434990967496,1.954289567165251,-1.5707963267948966
3.0142734050750732,4.935007116743699,-3.1511166432422373,2.5441796524612967,-0.4406149083044746,-2.5563841129567826,0.032031787575326015,-0.7853918592359036,-0.08308257457598063,-0.14345539856797496,1.9630852747637597,0.4397853799254392
3.034273862838745,4.930468811917926,-3.1769834568905306,2.5445081896019923,-0.45064362142122727,-2.5647260405400476,0.030976895399251775,-0.7454355226023411,0.03628037723186391,-0.14779935751688036,1.931669348227862,-1.5707963267948966
3.05419921875,4.921309449311778,-3.2282624549046006,2.5450979091582195,-0.4651638842688333,-2.5627554040132408,0.027982646762375583,-0.7068082387635057,0.16178266706204017,-0.15152368617262474,1.9002534216919642,-1.5707963267948966
3.0743064880371094,4.911805406766759,-3.2801154521096243,2.545676923026361,-0.47934459908160587,-2.572789278083466,0.02623743814242407,-0.5069015274318528,0.4639563392285272,-0.15417927619978222,1.8688374951560665,-1.5707963267948966
3.0941755771636963,4.896994657161762,-3.357589512478428,2.54643892490451,-0.49868381758397545,-2.570890362869258,0.022854632372461558,-0.24683550671210425,0.7685750810336507,-0.15592421164660158,1.8374215686201687,-1.5707963267948966
3.1143319606781006,4.886988152138356,-3.4088339177441545,2.546864740221128,-0.5011529213470249,-2.552576067070754,0.019722665593342917,-0.0027005912993279435,1.0608075581652296,-0.1571945585122725,1.8688374951560665,1.5707963267948966
3.134307861328125,4.88152615095925,-3.4348749427431344,2.5470904252892224,-0.5136284608491397,-2.555018738543215,0.01916106710212384,0.09930098956553624,1.456092346027885,-0.1578882981907062,1.8374215686201687,-1.5707963267948966
3.1542322635650635,4.871279979841178,-3.485658775429235,2.54744204349225,-0.5106660751382256,-2.522115305572855,0.015999819408407452,0.1960755657818515,1.830866490202081,-0.15816865145512818,1.806005642084271,-1.5707963267948966
3.17433762550354,4.859914663283703,-3.537279994581703,2.5476536001702446,-0.5362666306948174,-2.5219254056048053,0.010800253040038297,0.20734673959189173,2.2229583392643724,-0.15684374688313657,1.7745897155483732,-1.5707963267948966
3.194152593612671,4.843305132167352,-3.613211681007365,2.5479190801633016,-0.5470667050560926,-2.4925064684860136,0.006640921717553572,0.20225220462638585,2.1173803675497624,-0.1546931577884578,1.806005642084271,1.5707963267948966
3.2142138481140137,4.83240390748598,-3.662644657040688,2.5480211149684266,-0.5430728272780312,-2.4510955265883383,0.003570498680241125,0.1971333039043382,2.0260561924186917,-0.15231133834574256,1.7745897155483732,-1.5707963267948966
3.234175443649292,4.821581536030651,-3.7112667487755155,2.548062232653573,-0.5391813920035742,-2.411371856483752,0.0005499512558338512,0.19201153763401838,1.9485866631148006,-0.1497070580865303,1.806005642084271,1.5707963267948966
3.254171848297119,4.8101408126958125,-3.760855188430123,2.5482472639614717,-0.5494001664954432,-2.3996087329537854,0.0015963590176498786,-0.10452209915236521,1.9718196796653673,-0.14711349947482577,1.7745897155483732,-1.5707963267948966
3.2743473052978516,4.799113358636251,-3.8084510010626964,2.548249950963312,-0.5542524503169116,-2.3598653076588443,-0.0013183760679668572,-0.3766951487455763,2.003980391596148,-0.1443287991800448,1.7431737890124754,-1.5707963267948966
3.2941854000091553,4.788338382537803,-3.854826446376004,2.5482334047301167,-0.5511902440781519,-2.307830082567867,-0.0034211713006798024,-0.49434323366361765,2.093482990928893,-0.14103614387189753,1.7117578624765777,-1.5707963267948966
3.314213514328003,4.777208463200703,-3.900558231591612,2.548137000477845,-0.5621541610638482,-2.2650399922107085,-0.006207821915515857,-0.6000896171029513,2.1860136035640965,-0.13760664800034192,1.68034193594068,-1.5707963267948966
3.3342225551605225,4.772187645085796,-3.9227628751098225,2.5479905767525515,-0.5501391210497862,-2.229442159637834,-0.009937155037579143,-0.6009486952907472,2.714090930247464,-0.13332336470873712,1.7117578624765777,1.5707963267948966
3.354179620742798,4.7560450724337775,-3.988566902658632,2.547525175833991,-0.551067524659162,-2.1507156063614707,-0.01670825092903119,-0.6675527034044795,3.020936532620978,-0.12768516403718236,1.68034193594068,-1.5707963267948966
3.374340772628784,4.74488617837895,-4.0309574709545455,2.5471658479471575,-0.5650168468649353,-2.087378220835011,-0.01920585920109009,-0.7260462033605166,3.309843501896938,-0.12208163706716407,1.7117578624765777,1.5707963267948966
3.394235849380493,4.734151877912429,-4.0727992882118444,2.5468313064471566,-0.5613986456084281,-2.0389412845515893,-0.01934819763448966,-0.638777433767994,3.56075127086398,-0.11675072192929148,1.68034193594068,-1.5707963267948966
3.4146194458007812,4.722801720117913,-4.11284998452313,2.5464213459810052,-0.5733426725498617,-1.965341715000022,-0.021630197820403617,-0.556437139086941,3.796745890076428,-0.1114554097010329,1.7117578624765777,1.5707963267948966
3.434321880340576,4.717337543094325,-4.132936408563657,2.5462733190060556,-0.5711110934400252,-1.9425841864708662,-0.02041531797760251,-0.5946221993537127,4.055777923812932,-0.10679168020787938,1.68034193594068,-1.5707963267948966
3.4541406631469727,4.700073796466607,-4.190046357602094,2.5456821923916726,-0.5846287424212782,-1.837538805510045,-0.02160174673933907,-0.5483154875216211,4.268030927438231,-0.10215694576594175,1.6489260094047822,-1.5707963267948966
3.4742560386657715,4.6882746255408865,-4.225930209176282,2.5452300340994136,-0.5951353405874429,-1.750194120774282,-0.023598697806352577,-0.502412854236741,4.463706667448057,-0.09754157986542747,1.68034193594068,1.5707963267948966
3.4942100048065186,4.682393830877949,-4.243623730054453,2.5451121318605923,-0.5985235116901004,-1.7168203088469651,-0.021002822122354766,-0.6249249466645546,4.475079682679017,-0.09384324360703498,1.6489260094047822,-1.5707963267948966
3.514341354370117,4.6702908789752655,-4.277064541122596,2.544673554545643,-0.6121354983316522,-1.627234782315906,-0.02284250167760636,-0.7340768366031135,4.48288584871829,-0.09012098755445504,1.68034193594068,1.5707963267948966
3.534221649169922,4.658123000179819,-4.309114939692417,2.544443163788569,-0.6190962337943273,-1.5467406824020085,-0.018470250829757815,-0.5616733950069132,4.42784300225883,-0.08762683189288974,1.7117578624765777,1.5707963267948966
3.5541303157806396,4.639446645303674,-4.353397660594831,2.544002660727264,-0.6313748193004843,-1.4083030140441506,-0.01684087941926722,-0.46295109357074826,4.598438583385824,-0.08567525890000992,1.68034193594068,-1.5707963267948966
3.5742571353912354,4.626732881024655,-4.380633416844529,2.54364884408963,-0.6396897587674264,-1.3147542412713038,-0.018533888297162345,-0.36939423894617857,4.753955455700452,-0.08360653026183515,1.7117578624765777,1.5707963267948966
3.5942535400390625,4.620266387487842,-4.3933241091726405,2.5435394720300835,-0.6452249985314362,-1.2602819236725067,-0.01745466766988668,-0.3757478133290205,4.831574305981813,-0.13344396179281137,1.7248465122686518,0.654432489603729
3.6153581142425537,4.607286486211764,-4.417558636303469,2.54316056220517,-0.6527748896746193,-1.1629372001132223,-0.020589497028382996,-0.378677334622806,4.901653508428435,-0.17940025057707704,1.693430585732754,-1.5707963267948966
3.634216547012329,4.5938164544665305,-4.439683757221135,2.5429424465904646,-0.6681356338528298,-1.060554811691658,-0.01794396705554228,-0.3066368746849566,4.946063801115213,-0.16766875886650565,1.7248465122686518,1.5707963267948966
3.6541590690612793,4.57343582906878,-4.4691506101662695,2.542456877421099,-0.6823310007224184,-0.9089191565726663,-0.019494600553243795,-0.2263595326440718,4.8957085428442975,-0.1566146792621243,1.7562624388045496,1.5707963267948966
3.674373149871826,4.559749122934461,-4.486353217451877,2.5420363826044494,-0.6860830593139708,-0.8115100072614193,-0.022519152759483012,-0.14939238603644617,4.8451781512001775,-0.14589610235880762,1.7876783653404473,1.5707963267948966
3.6942100524902344,4.54568667507259,-4.501129960272728,2.5416325485115765,-0.6978798380052926,-0.7013101593947864,-0.023830679299788365,-0.2539290299044378,4.880294686893427,-0.13575891741244542,1.819094291876345,1.5707963267948966
3.7143375873565674,4.531671859794755,-4.514177998601146,2.5411294431487423,-0.7039145072593533,-0.6033922530295188,-0.026447118171178056,-0.34777866112970957,4.910722395591871,-0.12593720497301303,1.7876783653404473,-1.5707963267948966
3.734218120574951,4.524489436678899,-4.51949580289599,2.54080990070282,-0.7097764617007662,-0.5417250221981346,-0.029081884326013382,-0.2406084793435342,4.793350162985043,-0.11630901960303673,1.819094291876345,1.5707963267948966
3.75423526763916,4.510252655876889,-4.529379311047579,2.540205627125752,-0.7135626301405974,-0.4470072520839791,-0.03131444173259482,-0.13890989011348376,4.678911584828383,-0.10699945047168873,1.8505102184122428,1.5707963267948966
3.77420711517334,4.495908647522356,-4.536572050068771,2.539344137470993,-0.7179678309354924,-0.33308440383019366,-0.038914093642120534,-0.12730587058884368,4.607722010416914,-0.09648666909760976,1.819094291876345,-1.5707963267948966
3.794206142425537,4.474152141145678,-4.54380436620652,2.537979213564108,-0.7272215028852075,-0.17495526272849285,-0.04620908655547274,-0.2284329265343757,4.639768331725272,-0.0848917455464271,1.8225110755635914,0.1708391843623147
3.8141391277313232,4.459555774005599,-4.546373746839868,2.537038801317147,-0.7327196563528293,-0.0819002529811116,-0.04779516159870965,-0.31977041310899884,4.664535894900062,-0.07379863036163586,1.8060126636499803,-0.8249205956805783
3.8341891765594482,4.444747929981105,-4.546229884176116,2.5357049290204916,-0.7419704311592423,0.03188005954833528,-0.05836088208978769,-0.4876833418548965,4.653999166956492,-0.06092222129121943,1.7775099670199728,-1.4251348315003742
3.8541958332061768,4.429920256376296,-4.544439173900866,2.534365087680653,-0.7475938983916011,0.13119384615322507,-0.06494853362169269,-0.45200004075931344,4.518068935333961,-0.0473824102237656,1.74765305762263,-1.4928454698671212
3.874481201171875,4.414880508090518,-4.540920631947661,2.533057508283753,-0.756251984554659,0.2202147961484015,-0.06576659323046558,-0.41331823303188325,4.384402928425181,-0.034538322421373294,1.7395598113216861,-0.4046623150471884
3.8942317962646484,4.407570067009786,-4.538080696712018,2.5320382793047544,-0.7524365208226774,0.27842898023000284,-0.07673531072875035,-0.37975294495665035,4.6639138822291475,-0.07439961394795094,1.7097192742693101,-1.4920268526187996
3.9141461849212646,4.384968560559849,-4.527214240230793,2.5294552493785494,-0.7597620453755819,0.43182857325075014,-0.08598265740863965,-0.34907079545096237,4.9534390376652135,-0.10792175614122008,1.6783033477334124,-1.5707963267948966
3.9341742992401123,4.369705676250429,-4.517569084784676,2.527711918188124,-0.7664157928071251,0.5335586782857337,-0.08845282793772721,-0.3158941595744664,5.214962754011767,-0.13863286146167753,1.6468874211975146,-1.5707963267948966
3.9541537761688232,4.354334750560912,-4.50589271119297,2.5258171663935505,-0.7721449771983636,0.6363318243274264,-0.09267265018506719,-0.2520597680228908,5.379541479181987,-0.10828877012952888,1.6163465883071702,-1.5270416445172463
3.9742019176483154,4.338845635230193,-4.4920801486773545,2.523943995124519,-0.7765577426620671,0.7454096396577975,-0.09454887661969166,-0.1894159537612728,5.525113442836017,-0.07960814626580029,1.6009372942374007,-0.7704647034884715
3.994352340698242,4.323111898736112,-4.476760089391561,2.5221684481077085,-0.7834326009495348,0.8391123773310136,-0.09304560574595624,-0.03033318105024638,5.6381631392276885,-0.11082891350472172,1.569521367701503,-1.5707963267948966
4.01429009437561,4.307447429131638,-4.458843659994839,2.52028342293567,-0.782507777059188,0.9528418153908307,-0.0955520722813981,0.12164410757072891,5.731548018364269,-0.13937832230134364,1.5424420264860226,-1.3539670607740195
4.034245252609253,4.299394994900343,-4.449506622862476,2.519417529646528,-0.7883058691668172,0.9970556524650075,-0.09387693011686685,0.09831654692208792,5.75652360989614,-0.10705863151861607,1.5485700327780965,0.3064003146036942
4.054171562194824,4.275444486229245,-4.417353888646677,2.516658025169198,-0.7941825563061932,1.1601506997003015,-0.0940154994574701,0.19320095614983415,5.740319575428686,-0.0772681466769918,1.5171541062421987,-1.5707963267948966
4.074426174163818,4.259605629575755,-4.393004454353331,2.5147641622329973,-0.7893982260462769,1.2747013246236272,-0.09527716532291251,0.28466674396462494,5.712904008270926,-0.04917887462038097,1.488825698245817,-1.4164203998190628
4.094240188598633,4.25145034118712,-4.380101779816764,2.513840015116203,-0.7931488725449056,1.3264412669743038,-0.09466092392369999,0.43338284106333835,5.449343891663459,-0.02435203756050095,1.4850480918446385,-0.1888803200589262
4.114243984222412,4.23568366443539,-4.352500387198556,2.511943506770833,-0.783042385717462,1.4328373907919356,-0.09491211128308537,0.5763096526338842,5.19116212373682,-0.0010116866152593365,1.4536321653087407,-1.5707963267948966
4.134209871292114,4.219499795330606,-4.322333079674923,2.5100592855646027,-0.7883501929988328,1.5487780552355883,-0.09451250594196157,0.5301636518277807,4.9990140251133415,0.01987510877805293,1.4506272841435486,-0.15024405825960763
4.154155969619751,4.19566887115057,-4.272923327014295,2.5071715968631083,-0.784278832640223,1.7175490855166247,-0.09563720390342514,0.49926127913729657,4.840663097375075,0.03965935928806739,1.4192113576076508,-1.5707963267948966
4.174303293228149,4.180081423990872,-4.237614706548104,2.5052680386782678,-0.774546488931034,1.8127893315258128,-0.09465698186632843,0.47507633265981913,4.683574795148945,0.058149670040612826,1.4107462865508023,-0.4232535528424064
4.194210767745972,4.164390047352238,-4.199358713932639,2.503192564692865,-0.771413507738864,1.9305935291202574,-0.09895107227143055,0.49183243580541125,4.394041529905101,0.01454797467475074,1.3869396764008357,-1.1903305074983273
4.214331865310669,4.149061419593475,-4.159886961290823,2.5012137083310506,-0.7613828761396458,2.015641647257963,-0.09906912241087067,0.5117482099281648,4.112013689079808,-0.025820922280456664,1.3837037288411622,-0.16179737798367455
4.234189748764038,4.13395838591974,-4.117548849188142,2.499043227240613,-0.7501387119844672,2.127659460035308,-0.10433119243501407,0.5307714578963898,4.004700017188288,-0.059616419057356096,1.3563928455845131,-1.365544162832455
4.254217624664307,4.119063158714536,-4.07420212243481,2.496942564854111,-0.7393123348552312,2.206639050876804,-0.1058385453164919,0.5522721615733759,3.892454106797746,-0.09066732739169889,1.3464192480735928,-0.49867987554601534
4.27434515953064,4.119100850799708,-4.073740856748184,2.4968813791505275,-0.7378980099591071,2.2203421535994092,-0.10824881996629966,0.5567153648776885,3.7728657612951944,-0.11694964920714312,1.3507150895438231,0.21479207351151608
4.294213056564331,4.097255292560602,-4.004608920091895,2.49354061323091,-0.720536105497956,2.3550018315472627,-0.11252473018015172,0.49164938866301244,3.565885675549635,-0.07580637825727983,1.3192991630079254,-1.5707963267948966
4.31429123878479,4.082938973118667,-3.9568092705140003,2.4912775765767026,-0.7112854538583243,2.4242888030631775,-0.11365000938091549,0.43476135820893536,3.36358793557042,-0.037127698699850706,1.3189627903567747,-0.016818632557535906
4.334332227706909,4.0620940612698675,-3.8810880819530054,2.487665660281643,-0.691058642637689,2.5557715030352464,-0.11895592704088304,0.3992449652401534,3.109291080470763,-0.0009651396501692026,1.2877691567529714,-1.5596816801901614
4.354212999343872,4.048350700030122,-3.8293673467573828,2.485288644500374,-0.6833739278531807,2.6154809735671347,-0.11863275487111166,0.3703079921558339,2.862976166570067,0.03290460095208686,1.2917944514707163,0.20126473588724103
4.374291658401489,4.035181142238745,-3.7754732827014483,2.4827107922882123,-0.665227023454386,2.6957158233837264,-0.12316209366180636,0.35832575209677214,2.541051662636166,0.06429312839555268,1.2612205059019823,-1.528697278436697
4.394284009933472,4.021947698094742,-3.7210715591096606,2.4802623954414345,-0.658142056759178,2.743427239477781,-0.12158001749525348,0.3509239300468859,2.232258820050943,0.09356601056914557,1.2655339321247308,0.2156713111373998
4.41426157951355,4.015686074820979,-3.692754339163938,2.4788821742934943,-0.6467641545068021,2.7852289206437195,-0.12525087031742796,0.26552195221073666,1.9342033198808584,0.12031989793362091,1.2462937984717612,-0.9620066826484752
4.434565305709839,4.002798716613762,-3.6366821854463556,2.4764029076491405,-0.6422221953265294,2.821033168477145,-0.12259304712157938,0.19035890963034122,1.6482149959615238,0.14514476641090363,1.2451907031138685,-0.05515476789461626
4.454248905181885,3.990498092828409,-3.578337822883672,2.473709818451769,-0.6253820504293945,2.8932647268007403,-0.12461791146878819,0.2055914241743183,1.573613097291994,0.3513510489699806,1.2218799281688257,-1.1655387472521372
4.474186420440674,3.9782277522319465,-3.519626407758161,2.4711661952512514,-0.6153502142832237,2.9421539047658527,-0.12004832154799336,0.13542426346981856,1.5693712616563804,0.5755468764335392,1.2127117976364268,-0.45840652661992554
4.494365215301514,3.965943717166851,-3.460470045727109,2.4688943452754337,-0.6132498444031307,2.9734477418234517,-0.10645176510054173,0.0764535627258287,1.5590073587077637,0.781027791429041,1.2062271948267131,-0.324230140485704
4.514234304428101,3.9542147381024964,-3.399869543001708,2.466359654811532,-0.5994328378001449,3.023455009274693,-0.10541933305012206,-0.02951718271108974,1.579789432727404,0.73679686482177,1.1885740173767854,-0.8826588724963669
4.534282445907593,3.942213891686308,-3.339083463895794,2.46439575100308,-0.6009533361328872,3.0551979778671585,-0.09111368049175486,-0.11998393333714384,1.593315955363828,0.6940066906468065,1.1871160745822351,-0.07289713972751244
4.554247617721558,3.9308238882370152,-3.2776682062581037,2.4624698187119862,-0.5861433919819244,3.0843371835456352,-0.08224214705582465,-0.05266809332548734,1.4641729831049901,0.6537989314533283,1.165686077469684,-1.0714998556275557
4.574209213256836,3.9136006617262695,-3.18472720006465,2.4604205628415876,-0.5774914291867808,3.121328821114429,-0.05921169320340362,-0.09626743335269264,1.4857754992743843,0.6124748795579096,1.1508736941830389,-0.740619164332279
4.59422492980957,3.9020292087807835,-3.1220024666553434,2.4593561421516625,-0.5797636213986871,3.151187430219202,-0.047363257987578976,-0.12919933516576207,1.4986529661324102,0.5726098230200442,1.1475456807784408,-0.1664006702299048
4.614252328872681,3.8964988659460107,-3.0907597659090755,2.4591019757694075,-0.5721009128397243,3.1550300783691188,-0.036437395946718715,0.03085869679294427,1.3647934382899003,0.534176679169551,1.1365112043274443,-0.5517238225498211
4.634279012680054,3.8850734127390627,-3.027395236153298,2.458477571615228,-0.5699293178761593,3.180969661208177,-0.02612643168659285,0.18538730582538493,1.228824959249643,0.4971526196385728,1.130270597958937,-0.31203031842539364
4.654199123382568,3.8737919588842153,-2.9640491158867763,2.4584471995030506,-0.5639283158047668,3.192308241025968,-0.006614835399161564,0.3945156259042833,1.134651259091639,0.4591288023573489,1.113784430013114,-0.8243083972911291
4.6744465827941895,3.862605745879152,-2.8999824926372177,2.458404269377891,-0.5540285766148059,3.2140273452142063,0.00220011389376713,0.5938414298521327,1.0366324772990978,0.4226156555509289,1.1013205806435558,-0.6231924684779067
4.694293260574341,3.8510354939380487,-2.835845775303591,2.4589307399757825,-0.5559347820963988,3.2254874325211262,0.02026203951972974,0.9262114799214064,0.9655388906396324,0.3853496256870513,1.096577912776576,-0.2371333933489872
4.714232444763184,3.8396679157222273,-2.7712726092344386,2.459556824316995,-0.5513104383883877,3.240301416294715,0.032472517412910136,1.0365541803158405,0.9459931189591155,0.3486687422967943,1.0793969933907892,-0.8590459692893182
4.734227895736694,3.8288563241890263,-2.706279027912038,2.4602736441678346,-0.5294842395953285,3.258968829908913,0.03909259348218473,1.1458962449491248,0.9196310853309404,0.31360596960681036,1.0691179243966165,-0.5139534497086373
4.754252195358276,3.817121645307622,-2.6413971243768524,2.4614962373527605,-0.5404780329081433,3.2632753375851324,0.05448835643945691,1.1700512310270674,0.7305448597866135,0.27823543132208817,1.0641480636353249,-0.2484930380645789
4.774206638336182,3.8007256698522975,-2.543499867634461,2.4634922151190253,-0.5227247967231834,3.274324056145612,0.06923698596368073,1.4540355112885706,0.5222970507571223,0.24229002004085054,1.0392742361704075,-1.2436913732458699
4.794204235076904,3.7905800844958915,-2.47792226286101,2.464923104890756,-0.4909422135214233,3.282778647217027,0.07373805054494062,1.7214990736298834,0.3249609033676043,0.20810722404361456,1.0372503621716156,-0.10119369993957239
4.814211845397949,3.780117237801755,-2.4124297918962068,2.466744247407243,-0.48006005960493137,3.28298682425763,0.085156370963441,1.9484573228786972,0.12906657757876197,0.17448386688504744,1.018376525229531,-0.9436918471042111
4.834223508834839,3.7709201990228847,-2.3467567544126613,2.4684801173267426,-0.4389311328443289,3.283700317536999,0.08832434526041082,2.162267683168758,-0.05591943851104652,0.14260054415853635,1.0116362390107865,-0.33701431093722256
4.854228973388672,3.765809873220909,-2.313812954782251,2.4695582536592715,-0.4394109952848488,3.285416114150199,0.0948304004227949,2.3508876544460606,-0.17279402820770454,0.11248359515411552,1.0028466007877377,-0.4394819111524617
4.874207258224487,3.752673798413603,-2.215047680564958,2.472661536765901,-0.39775406681485703,3.2875288032759755,0.10388076566955455,2.333121224477642,-0.23768516778370943,0.08239035260403112,0.9780696980785315,-1.2388451354603092
4.894255876541138,3.74518442044873,-2.1493489801873453,2.4747537086638496,-0.3512254616612764,3.2821241099169107,0.1052417450795906,2.32059871535402,-0.30282189788749286,0.053986029852557196,0.9745437979854668,-0.17629500465321524
4.9141929149627686,3.7375489015735455,-2.0835900562955563,2.4771574950133446,-0.3335945237650453,3.2820609892087127,0.11318918122203889,1.893983571202164,-0.034086697271116975,0.026362032414570892,0.9575138793884292,-0.8514959298518976
4.934773683547974,3.7312292632398862,-2.017938963547603,2.479424791703695,-0.2996653939508371,3.2838626686249888,0.11345387496443203,1.5051415981219776,0.21023868387510505,0.00037757277754207745,0.9460022368987433,-0.5755821244842974
4.954186677932739,3.7283301782601423,-1.985390170660248,2.4806957136589323,-0.28406761410589554,3.274428686349365,0.11692893295303923,1.31885641141821,-0.03900258894710602,-0.023656410256288566,0.9449464480698593,-0.052789441444200946
4.974182844161987,3.7213239555663264,-1.8878018894860624,2.4842322249269677,-0.21764027870110073,3.255164765507301,0.11693766133530833,1.3191860036410326,-0.127823223404426,-0.0461582974275288,0.9140718690798284,-1.543728949501566
4.994287014007568,3.717235288722108,-1.8227301081133136,2.4865603194999357,-0.19120675494302702,3.2517154746007466,0.11580164967186019,1.3250781788495414,-0.21719119431369482,-0.06720274000159733,0.9173048429331532,0.1616486926662386
5.014236927032471,3.716300520101049,-1.7906457750493883,2.4876807884441248,-0.15301046013263084,3.2370034293750694,0.11396122104969161,1.250493843072554,-0.3251936948943362,-0.08544935691744607,0.900208164621171,-0.8548339155990847
5.034260272979736,3.713485938835112,-1.7259779089231782,2.4899417700391697,-0.12866297832982274,3.229425623290855,0.11208033513549434,1.1858956782989685,-0.4324610062765472,-0.10243084594219899,0.8911712296292897,-0.451846749594087
5.054296493530273,3.712146174802988,-1.6616057244734386,2.4921618558656102,-0.08124687941662412,3.217931524638323,0.11000561276172582,1.1364023120140008,-0.4937975973848067,-0.11727716525368069,0.8782391748238316,-0.6466027402729058
5.074534893035889,3.7107456617997956,-1.5973500496939754,2.494337578932572,-0.058939938976500204,3.207424408724686,0.10752092711059309,1.0957426099486927,-0.557259175826743,-0.13100765831061195,0.8676334002665342,-0.5302887278648472
5.094289541244507,3.710508126965933,-1.5332249377184524,2.49649588371796,-0.019676202778777636,3.197909182882011,0.10563548645134943,1.0386263336524075,-0.6074051480253649,-0.14298445543805516,0.8568137564180374,-0.5409821924248437
5.114187479019165,3.710864264004987,-1.4375944271638401,2.4996081090418856,0.025915011909844427,3.1781172102818536,0.10142498464394906,1.1220340273025662,-0.6524360137653292,-0.15349668523034446,0.835620676311859,-1.0596540053089187
5.134361267089844,3.7116126270484204,-1.3741656518098726,2.5016052548477967,0.04920562440931089,3.1646049524190993,0.09825762887364568,1.207331479484549,-0.6990465167864142,-0.16308719132590788,0.8337508572070722,-0.09349095523933926
5.1542627811431885,3.7134221463126647,-1.3112341495271078,2.5035176541080637,0.08795189647688302,3.1441177356699237,0.09443297274094202,1.3073197418878908,-0.8005965254569544,-0.17083041605504484,0.8146807844716952,-0.9535036367688488
5.174246788024902,3.7154492669303827,-1.2485185555189806,2.5053716707212694,0.1150902976522093,3.1271117303491947,0.09094549887147702,1.4063587689113022,-0.8995772560149409,-0.1777876668548499,0.8110487795751093,-0.18160024482929416
5.194230556488037,3.7167848115712925,-1.2174155202529204,2.5062731411520325,0.1315610261769737,3.112353801411694,0.08918405252341016,1.3456871177161815,-1.191833868265403,-0.18344658179461537,0.8019519531961827,-0.45484131894633073
5.214284181594849,3.7196814099892794,-1.1554254875865193,2.5080197898995307,0.15791552232040867,3.0857289340488823,0.08546423571055872,1.2906965722681059,-1.4679987974491644,-0.18842283984406213,0.7922256887822603,-0.4863132206961218
5.23421835899353,3.7230447512229223,-1.0936155660673166,2.5097387281313366,0.18321512142692045,3.0657788783295685,0.08291296486723372,1.3478021044372592,-1.7082034563360826,-0.1923327290911658,0.7806139477704312,-0.5805870505914523
5.254152059555054,3.729176774738778,-1.001777582477422,2.512181747745553,0.22595505103443758,3.0306465914113665,0.07832863750797212,1.5341028670061845,-1.978024561800676,-0.19533058330863953,0.7623606730125139,-0.9126637378958691
5.2742760181427,3.7340146576313633,-0.9415773790447127,2.5137090820699526,0.25842373580199834,2.9885318106578653,0.07439663144154766,1.7112549672914847,-2.2306132902113833,-0.1977798884294168,0.7575951071171589,-0.23827829476774642
5.2942564487457275,3.7393403743799647,-0.8811750423666715,2.5152383954146273,0.28806712745744983,2.9692208478994937,0.07255681593985987,1.8468273371313417,-2.4695647649280046,-0.19957183134878248,0.7430256370553732,-0.7284735030892886
5.314583778381348,3.745479794806562,-0.8222996460606979,2.516649522345512,0.3263051578113433,2.917576931092541,0.06855152683835979,1.9759019645181806,-2.692126485629222,-0.20087716138130285,0.733123517425748,-0.4951059814812586
5.334308862686157,3.7484589091692557,-0.792525594913641,2.5174175897908744,0.33588542025583645,2.9094662915583083,0.06924519673949835,2.0854049667696444,-2.9096850850844773,-0.2020866308546402,0.7323984274925666,-0.036254496659071656
5.354173421859741,3.758925275561475,-0.7057504250469955,2.519529233741868,0.3831461983383069,2.8433692436761304,0.06680650942361344,2.126049286411864,-3.0786274257418986,-0.20310206923136093,0.7074540499507456,-1.2472188770910497
5.37428092956543,3.76701604080798,-0.6495093998920639,2.5208246985763445,0.42606059908176663,2.7802119046692524,0.06273809997059725,2.1651312958843194,-3.2350423207540975,-0.20366451238063482,0.7049734005221278,-0.12403247143089047
5.394202947616577,3.7753244502441605,-0.5936175152020031,2.522254547845928,0.4546446254196573,2.736669860401244,0.06406551959835814,2.25884479502979,-3.444477986931761,-0.20452804255837598,0.6896644948173019,-0.7654452852412952
5.414217948913574,3.7848750845053556,-0.5395861565034114,2.5234949177498707,0.5007129109191729,2.665822345187569,0.059970098632375485,2.347079663560919,-3.637583619509979,-0.20493991988161883,0.6802374475897017,-0.47135236138000636
5.43425989151001,3.7897255203894735,-0.5125898288366985,2.524228479108088,0.5177131868425628,2.6427185600906458,0.06204833105971863,2.488739424987398,-3.797949016277287,-0.2056722074269553,0.6767989296543413,-0.1719258967680215
5.455994606018066,3.806053778068768,-0.4344413777015937,2.526157117909063,0.5847294386848434,2.5437788546931297,0.06047595589472109,2.689326145010685,-3.9384260994001323,-0.2064262843306254,0.6498136974406785,-1.349261610683139
5.474220514297485,3.8182989259695965,-0.3843621824378439,2.52732532441993,0.6404088793677892,2.4637168328026338,0.056343703256264505,2.8763896561300886,-4.0655831815803385,-0.2067240974081599,0.644796528287237,-0.25085845767207626
5.494160413742065,3.8310362547219454,-0.335298328317021,2.5286765397153808,0.6819157153729117,2.396706358181232,0.058885074288237915,2.98013288443461,-4.091641806787533,-0.20761124738542305,0.6283320710548765,-0.8232228616180226
5.514216899871826,3.8452771038857825,-0.288183978309214,2.529812683517833,0.7424879051674509,2.3146609416753545,0.054727922761229744,3.0757473394296118,-4.111954555593362,-0.20802644595264502,0.6149557790202045,-0.6688146017336027
5.534219980239868,3.85230850492618,-0.26506011881364616,2.530530693314968,0.7567441865757544,2.279104286441141,0.057770314805855816,2.944105701780794,-4.001397259385551,-0.20897215383519557,0.6136784383344125,-0.06386703428959972
5.554159879684448,3.87595076053423,-0.1986042242561283,2.5323093976647084,0.8330581918861055,2.1568916501379216,0.05532334327014757,2.718692336729253,-3.7726644479788436,-0.20966492535294493,0.5822625117985147,-1.5707963267948966
5.574264287948608,3.8931413406089894,-0.1562063542369923,2.5333739090197303,0.8852953085543471,2.0836126823848855,0.05112705357648891,2.5073347909314267,-3.5574598251668017,-0.2098867637313217,0.5762356724210198,-0.3013419688747465
5.594379901885986,3.911541173559798,-0.1160576288762646,2.5343419963126066,0.9407201495996946,1.9916132390635544,0.045866603034421874,2.3105753912080726,-3.4257179507163413,-0.20866483694514115,0.5540732767886838,-1.108119781616801
5.61426854133606,3.9308051200282743,-0.07690209821729829,2.53521769462966,0.9850549035685694,1.9243541628706595,0.041708480394441146,2.1246933831753476,-3.3014140899225843,-0.2070895177430095,0.5447766859065313,-0.46482954410762556
5.634538650512695,3.941363305095264,-0.05867248465246286,2.5354201022944594,1.022479189525312,1.868284985912205,0.03359463214625329,1.969163234439372,-3.1534305393300435,-0.20339333775350363,0.5333489840205239,-0.5713850943003695
5.655106067657471,3.973767703747947,-0.005009307881158754,2.536055334582714,1.10478538836112,1.7469588701377228,0.019456795124145717,1.8716183933211885,-3.0539392489449666,-0.19674236530636594,0.5019330574846261,-1.5707963267948966
5.674226522445679,3.996231447643035,0.02932545338319334,2.5364055652385353,1.1412781783013248,1.6868315494890085,0.015588427237032694,1.7783702451913188,-2.9596491923059642,-0.19009539200086614,0.49561217299336313,-0.31604422456315007
5.694367408752441,4.008447611542993,0.0451668220468896,2.5362581834523477,1.178107851442305,1.6322806865267057,0.005371458414513613,1.658859934952451,-2.9738203589329344,-0.18136119781967874,0.48101603833386175,-0.729806732975069
5.714322090148926,4.032333904589696,0.07721690552891573,2.5363299146286726,1.2101451130167866,1.5726922874879317,0.001830237796980345,1.5459555375289602,-2.9844341086269637,-0.1727876217407223,0.4678858809392086,-0.6565078697326587
5.734270334243774,4.0578482893971834,0.10691117648065444,2.5359065685724227,1.2647485521783008,1.484354091625215,-0.012027299998641473,1.4079753632107237,-3.043771961159868,-0.1614180473757177,0.44416370589768883,-1.1861087520759872
5.754204750061035,4.097062911846232,0.14957318701688926,2.535235877545437,1.3246946084609572,1.3786058896030586,-0.02346797492082449,1.3444938019695873,-3.118515231655259,-0.14820430309102103,0.4179554549109872,-1.3104125493350827
5.7742815017700195,4.123821712977262,0.17651716559787353,2.5347377330071144,1.3509899979106383,1.3155791362119895,-0.0263041022644168,1.2858397944080424,-3.182369814299976,-0.13549116963763458,0.4085151576622761,-0.4720148624355547
5.79418158531189,4.137973917683066,0.18920827984789954,2.534270041782077,1.3800271221809446,1.2748016516099698,-0.033110646915680574,1.2708251093552296,-3.2478682617663033,-0.12226868998084055,0.3968325927546341,-0.5841282453820984
5.8143556118011475,4.1658277381005995,0.21405090957368605,2.533584229145546,1.4053124350546689,1.2092786510886002,-0.03542836785458315,1.2580786391080225,-3.302674109630511,-0.10959386165270649,0.3791990346571543,-0.8816779048739898
5.834227800369263,4.20953792550996,0.24866185766038773,2.5321591233881917,1.4640300293870385,1.1066905795177737,-0.04517317899488996,1.3019516174512935,-3.315234369297948,-0.09547603936560253,0.34778310812125657,-1.5707963267948966
5.854145050048828,4.239194861463951,0.27011773050117766,2.53119100358664,1.4935256534078487,1.0401682873806926,-0.048473686234087904,1.2721708619101417,-3.2783865381435113,-0.08172354183165766,0.33540330342070623,-0.6189902350275167
5.874283075332642,4.26931797705716,0.2902680508882331,2.5302060690417867,1.5186968490923791,0.9749982166276638,-0.049976116936617056,1.2454524935655946,-3.238048956120898,-0.06862793186528574,0.31590160360779374,-0.9750849906456249
5.8942341804504395,4.284643988115909,0.2997871822621967,2.529646466917024,1.5329225905956618,0.9404692715096667,-0.0521142011350063,1.2173051060139213,-3.245159537854901,-0.056294516791467505,0.31078988023638,-0.2555861685706873
5.914291858673096,4.315544180589904,0.31794738083352553,2.528593715386905,1.5570132041411517,0.8755480691461375,-0.05312189021961051,1.1922679777285592,-3.245917614319836,-0.04457581356225428,0.28765878760187746,-1.1565546317251263
5.934255599975586,4.3469846843922895,0.334617805892939,2.527442857911378,1.5822901824014965,0.8061878357110386,-0.05588300070896634,1.1867735594783217,-3.216930030474385,-0.03318312638644162,0.2697455464567664,-0.8956620572555529
5.954846620559692,4.378867512379022,0.35010030849433366,2.5263192906899787,1.6059766873012062,0.7421722816566309,-0.056437746360460464,1.1819945443034203,-3.1839750422931203,-0.022390398563163952,0.2510026516719419,-0.9371447392412247
5.9742279052734375,4.411242900245498,0.36414568536030995,2.5251307831844167,1.6301057363235611,0.6739080302756492,-0.0580900712739015,1.2023594403747895,-3.2500654236943256,-0.012108371079493906,0.23007530931844622,-1.0463671176747846
5.9942708015441895,4.458961361453171,0.38228013571915004,2.523428969565629,1.662924604691534,0.5779453180037768,-0.05866795669794498,1.1860890188774587,-3.3383776509001124,-0.002292894032771064,0.19865938278254847,-1.5707963267948966
6.014271974563599,4.492456048882921,0.39316612579249455,2.5222557780026005,1.6864940380692444,0.5104022697947003,-0.058620356781730804,1.1710584528736492,-3.4138092883488746,0.006960154268725262,0.17966459263441692,-0.9497395074065773
6.0342607498168945,4.51094360223324,0.39866395710570046,2.5216284680370786,1.6950963116167852,0.4751277116502721,-0.05793177727317291,1.1233605782721925,-3.4779064153056227,0.015124914519228354,0.17101070510886185,-0.43269437627775353
6.054173469543457,4.562170422310691,0.41159580516448924,2.519941555465411,1.7239568732469182,0.3774601536157448,-0.05607948374628496,0.9851544744253464,-3.5215803542019684,0.022433366148511436,0.1395947785729641,-1.5707963267948966
6.0742456912994385,4.596837854547491,0.41843832159867633,2.518824916870748,1.742357402724403,0.3066818368100293,-0.05556153109195033,0.8564664954166354,-3.5544813558962844,0.02928692238125519,0.10979469683283627,-1.4900040870063913
6.09418797492981,4.631834074738669,0.4242458368268316,2.517814717069079,1.7587395122836456,0.24495564587626698,-0.052583138742594855,0.7404111840503221,-3.5765312034417063,0.0348399312576856,0.08968148406199283,-1.0056606385421718
6.114262342453003,4.667149675551678,0.4284286444082954,2.516770373889704,1.7724646362097158,0.17328287868672088,-0.05183390471179169,0.633627554992176,-3.5892058524685373,0.040022415810772254,0.061914507519361006,-1.3883488271315914
6.134216070175171,4.685073256390509,0.4302028603392702,2.516303321571874,1.7827876856671352,0.14465809050714934,-0.05000857360388021,0.5283892545841844,-3.455488393245726,0.044238142647236925,0.05392592005161978,-0.3994293733870613
6.154247999191284,4.739080079418597,0.43307183303376134,2.5148565007790755,1.8059488614903292,0.04411679472394527,-0.04772590042679599,0.43095294056503786,-3.3130616217237026,0.047828971465719884,0.022509993515722027,-1.5707963267948966
6.1743834018707275,4.775279149488624,0.4333009584346874,2.513911774106241,1.8136598058945053,-0.020735720677816337,-0.04673571757033892,0.34144797134151994,-3.172501536376668,0.05114386544933017,-0.008905933020175727,-1.5707963267948966
6.194147825241089,4.811979514880244,0.43205548799968074,2.5129796357449,1.8295392399601578,-0.08836330419402998,-0.04604626887095281,0.36862389034443577,-2.9803194758796496,0.054095352662943984,-0.04032185955607348,-1.5707963267948966
6.214348316192627,4.848645807021711,0.4297046484750418,2.512069713630547,1.837178622018772,-0.14610143602603393,-0.04493693969307421,0.39521844464995604,-2.7945539701340496,0.05679631480011189,-0.07173778609197123,-1.5707963267948966
6.234254598617554,4.867144332510071,0.42775035538124556,2.5115753452648613,1.843042514105571,-0.18232087973722397,-0.045778617021316116,0.303234318756918,-2.5521330668991853,0.05946443517797585,-0.09783265399031071,-1.304743394916974
6.2541587352752686,4.922547107473269,0.42050042568318097,2.51014874372995,1.8501583711204188,-0.27486670616733044,-0.04629840998837378,0.1501994488637999,-2.274383148739321,0.0623494959898348,-0.12924858052620847,-1.5707963267948966
6.2741968631744385,4.959570732965767,0.41456600328304116,2.509235424391804,1.8517352974763401,-0.31769810742986737,-0.045024795563629275,0.009530521882624368,-2.0111499230653522,0.06496808487261808,-0.15689593734320795,-1.382367840849974
6.294251203536987,4.978107111095823,0.41058819044641837,2.5086851079785473,1.850828984994274,-0.35592449177507113,-0.0473617814031743,-0.1979132138693381,-1.7763442405265502,0.06792784630835548,-0.1692084339931279,-0.6156248324959979
6.314250469207764,5.015071112170572,0.4031294732212668,2.5077516409916125,1.8449350347663673,-0.3892052389708161,-0.04597599782782266,-0.3887460776013083,-1.553742279045144,0.0706038036940533,-0.18160013217788507,-0.619584909237858
6.334196090698242,5.0523849252535316,0.3935535526367937,2.5066412872280783,1.8474966390784051,-0.4543312620581019,-0.049750324301830635,-0.7308586032550753,-1.1832372314794188,0.0740971123557756,-0.20547154950633928,-1.1935708664227107
6.354189872741699,5.108074270152997,0.37834544886964583,2.5050216378377628,1.8396510004155537,-0.5169078069403026,-0.052095185727168695,-1.1300914098339412,-0.8287566848844333,0.07822266803118602,-0.22469098759709905,-0.9609719045379883
6.374107360839844,5.144616139674287,0.36786402903175847,2.5039956345041086,1.813303740948983,-0.5301286315866969,-0.05049267065526103,-1.499766246842371,-0.49708458602750577,0.08196592305758306,-0.2273232515454806,-0.13161319741907818
6.39415431022644,5.181823588319952,0.3555174198648144,2.502782080402923,1.8131148775750303,-0.5793959913662623,-0.05419745912280497,-1.7876119400017656,-0.22416626301408957,0.08637859324949473,-0.2443669997845137,-0.8521874119516548
6.414239168167114,5.217710316223038,0.3439019471274793,2.5017156800839873,1.7746743375231964,-0.5813023116150413,-0.05242926116291545,-2.052693613415429,0.030531820426616604,0.09037225262689533,-0.2443253457005321,0.0020827041990800765
6.434310436248779,5.236351776146531,0.33696645302343514,2.501098611268327,1.7794695367117763,-0.6109318586036742,-0.05410889922233828,-2.3969711654296475,0.2413383145729278,0.09433833600213522,-0.2539408046476934,-0.48077294735806575
6.454188108444214,5.28977517727063,0.31762008021930727,2.499503726089934,1.7357336705056328,-0.6335278185082378,-0.05145435832921793,-2.826472011871758,0.4595985078283261,0.09765006555039564,-0.26352947261190884,-0.47943339821077124
6.474297046661377,5.323897946746398,0.3050551969069346,2.498494370832607,1.6752460481513967,-0.6222859573564041,-0.049471382779330296,-3.215658086062744,0.661971465814861,0.10058561768335403,-0.26383058765357026,-0.01505575208307075
6.494242429733276,5.341536426435814,0.2980165792217565,2.498096009121197,1.6728934438980363,-0.6396824179253913,-0.04562050779275138,-3.1993127399705816,0.6149720537284248,0.10218238707211232,-0.2697560489142212,-0.2962730630325483
6.514366865158081,5.3743561417903765,0.2853429757261936,2.4972041278668033,1.609173674044351,-0.6278223852678695,-0.04356322662463863,-3.170644869795481,0.5716345699427854,0.10349982350171277,-0.27151331976821247,-0.0878635426995622
6.534254550933838,5.407468061117114,0.27203898897108114,2.496662899754853,1.5850883370428772,-0.6377993017854328,-0.033513896120193044,-2.8464708666186596,0.32474585812491086,0.1021768838870702,-0.27732069245074387,-0.2903686341265699
6.554272413253784,5.45391125896295,0.25319403761168113,2.495921396776007,1.506111837273405,-0.623305702978151,-0.0243814266793319,-2.447766738994976,0.25279345121199986,0.09892103232942775,-0.280574354149727,-0.16268308494915562
6.574459552764893,5.483569762560851,0.2407740309081996,2.495453336689504,1.4610169821640209,-0.6189118596370946,-0.022435347920352684,-2.0642246129307233,0.18772275517656895,0.09569126179063883,-0.2842189707507834,-0.1822308300528208
6.5943310260772705,5.497481196603972,0.2351587160683611,2.4953444037376515,1.42565011109564,-0.5997099894099632,-0.018619156620466693,-1.63068229502314,0.278200156285548,0.0918122413275244,-0.28062224144069914,0.17983646550421284
6.614238262176514,5.525695882766203,0.2232258648693981,2.494990128262068,1.3971916906448147,-0.5932950205624465,-0.016821067178567663,-1.2187192268639475,0.36223564760994226,0.08800936308193943,-0.28293924905082557,-0.11585038050632157
6.634227991104126,5.550891145202394,0.2124147389013627,2.4946442328188487,1.306889728688203,-0.5634683669503111,-0.01612851625582657,-1.3540663368351127,0.2104831845656275,0.08446525120831208,-0.2850267009214975,-0.10437259353359707
6.654215574264526,5.587762915605031,0.19620218833855924,2.4941076664495507,1.2175466458810051,-0.5384729874250356,-0.016213259164756806,-1.4325140925938364,0.37615298368682315,0.08143340199315212,-0.28908687879955863,-0.2030088939030561
6.674245595932007,5.611822505222759,0.18551839368437928,2.493799487729459,1.1881766931128135,-0.5293947947131756,-0.014614591750899976,-1.503204101283462,0.5296625634592852,0.0784397367092918,-0.28865015631427093,0.02183612426438497
6.694298267364502,5.622517601693323,0.18078459798200536,2.4936157746411944,1.1464296557454503,-0.5092696887658147,-0.014853129885622368,-1.0196909787669375,0.5111963324570837,0.07580256574209217,-0.28747338260658406,0.05883868538434367
6.714406967163086,5.645273271466161,0.1707002657685197,2.493333697841803,1.1306679677768856,-0.4992215419564556,-0.013363267191678319,-0.5604889665392202,0.4937930248366347,0.07318743607965586,-0.28547637111062985,0.09985057479771076
6.73422908782959,5.666204230461283,0.1613987780865132,2.4931382070662167,1.0802937492908407,-0.4740037700732136,-0.010486945000201775,-0.29364378097935706,0.5275862176334853,0.07012223391699453,-0.28364411491757924,0.09161280965253038
6.754241466522217,5.68776868184342,0.1520263095412395,2.4929422911485957,1.0770086350247243,-0.46314128806306526,-0.009114672018583488,-0.0364676492841052,0.5581264623585136,0.06711465415182206,-0.2784917806923599,0.2576167112609662
6.7743449211120605,5.706858917060687,0.14359724525661877,2.492721508014858,1.016000544141847,-0.4350185953502746,-0.009422131395552097,0.18559759524065328,0.42044656547744497,0.06450287002101156,-0.27826401278253643,0.011388395491174208
6.794193506240845,5.735668504925006,0.13132830024754222,2.492374419560089,0.9732746427637012,-0.4034800909788101,-0.010183297206406304,0.371646293785932,0.6236938967930169,0.06242877512951852,-0.2693455856485665,0.44592135669849764
6.814309120178223,5.7552205336041915,0.123396209838036,2.4921831014423703,0.9825352671622697,-0.3891030971604336,-0.008955404837361508,0.5537585998129445,0.8114560209611987,0.06036170864304379,-0.2606562699476185,0.43446578504739986
6.834271192550659,5.763584358772595,0.12004581907562742,2.4920223303753244,0.9455534135723264,-0.3659722703118491,-0.01037303886824097,0.454651058492607,0.9605037029891551,0.05883967015405378,-0.25779542529378796,0.14304223269152594
6.8552093505859375,5.791069638051086,0.10957474597149836,2.4917322158491344,0.9294329547930913,-0.3349118191772422,-0.008622649449724238,0.43401426237427004,1.0199619046590465,0.05711198458267189,-0.24162778301631826,0.8083821138734848
6.874376535415649,5.809744130339605,0.10308416822872372,2.4915710697218407,0.937974436947296,-0.3139675327547243,-0.00749774543450522,0.42145870459685947,1.073491117200536,0.05537735766414469,-0.22997005656822633,0.5828863224045966
6.89417576789856,5.8186658406285074,0.09998442526417997,2.491557597174635,0.9314695478743305,-0.30286443069973573,-0.005196009249780941,0.6727239412291663,1.163475352906453,0.05319714441919659,-0.2268995213356617,0.15352676162823098
6.91419792175293,5.837446059510804,0.09416537706100746,2.491464172457805,0.9473587519012161,-0.27877057440168135,-0.004153637200984963,0.9146493023223125,1.244423818276637,0.0510447196243003,-0.20723895867855813,0.9830281328551793
6.934284687042236,5.856077562793148,0.0887773403124532,2.4915331387131525,0.954750968727298,-0.25312044265127426,0.00046041789288450133,1.205986203201019,1.5085927858512609,0.04791216619838306,-0.19234486746713486,0.7447045605711633
6.954155921936035,5.884630122908822,0.08173871416122194,2.4916831113342726,0.9744750782942881,-0.20989625819636143,0.0051952585822737235,1.4566319650479709,1.734035297038085,0.043889958366230844,-0.1609289409312371,1.5707963267948966
6.974318504333496,5.904427046179698,0.07790145365683349,2.4917955343499236,1.0060118735887635,-0.17315616040709106,0.006034167630053263,1.6950229780443151,1.9361350538638566,0.04002730593715266,-0.1348647076216336,1.303211665480175
6.9942238330841064,5.913842932926324,0.0759992393521079,2.4920037907078303,1.0039348579800766,-0.1611165207583722,0.010624064467542655,1.9031620736710377,1.9992248345507149,0.03538013914862164,-0.1305688608406994,0.2147923390467099
7.014397859573364,5.934315599640131,0.07318037421369737,2.4922230489473507,1.0439897827334919,-0.1205985853360335,0.011286982566183636,2.100556198621992,2.0506526850193807,0.030946994309230876,-0.09915293430480165,1.5707963267948966
7.03441309928894,5.954338811589835,0.0704753411606589,2.492734103429547,1.056007285071246,-0.09657613848946581,0.018928499752393153,2.2463552119882535,2.0671327401168127,0.024983526142526302,-0.07925281948404717,0.9950057410377244
7.0541465282440186,5.986467329496406,0.06823893009976693,2.4935113862629117,1.1090300257547459,-0.041898726270171265,0.026217306283558672,2.3721089553088457,2.0508376781225555,0.13415445139166146,-0.04783689294814941,1.5707963267948966
7.074201583862305,6.00913039949331,0.06780977155056646,2.4940693944822905,1.157673814550249,-0.0010890490496242272,0.029917727278435318,2.491163093689042,2.0292643639394274,0.23442150585681526,-0.01642096641225166,1.5707963267948966
7.094346046447754,6.020587711235997,0.06787939678761597,2.494489602860391,1.1770869788208698,0.01912488550424017,0.03496497523031979,2.5999007204033426,2.0340258799043553,0.20357241727339342,0.014994960123646095,1.5707963267948966
7.114388465881348,6.044656355524855,0.06866863965305076,2.4952276392291255,1.2301183249810679,0.05979021604392625,0.03874108186069524,2.7021652332242945,2.031274231631986,0.17429793323378676,0.04603843248296169,1.5521736179657797
7.134266138076782,6.06960796786754,0.07056514415849816,2.49611486969203,1.2803790294459316,0.10851757982833427,0.04592592533016062,2.7640217362100556,2.075151669580326,0.33220713577085753,0.07560703848200445,1.4784302999521381
7.15415620803833,6.1092687192833335,0.074951149949146,2.497680026238571,1.3643828289282094,0.17477378292058793,0.05833882900495646,2.840638267611786,1.892194322693156,0.5325949675036168,0.1070229650179022,1.5707963267948966
7.17419171333313,6.137129331512533,0.07881322049109304,2.4989658012072633,1.421915181179412,0.21084690003121673,0.0708481727758489,2.9116762309179114,1.716280845611165,0.7154535828477736,0.11843747500412816,0.5707254993112976
7.194216251373291,6.166406950275129,0.08386922821962994,2.5003780633954884,1.4874904816648953,0.25491628670448974,0.08316002498944175,2.957746526276103,1.253128244063804,0.9965899397328863,0.13402560913100947,0.7794067063440657
7.214389085769653,6.1967510954584215,0.08918877958065378,2.5022580470331697,1.5470586618936208,0.27559314956786846,0.10569060024517003,2.998136427746646,0.8194070496228085,1.252278886896914,0.13545688124208244,0.07156360555364838
7.234243154525757,6.212705740071356,0.09281506254914063,2.503030764325658,1.5881682495660376,0.3041572042652043,0.10687178277170534,3.15098864571899,0.3080052832341513,1.099052731566749,0.1450909776227638,0.4817048190340678
7.254202842712402,6.2451087833691385,0.0989276819108891,2.5053781834237254,1.6525984414466326,0.3055307977422711,0.1273851633244331,3.2897027236489715,-0.16419079517207077,0.9535609274392214,0.13757268987476978,-0.3759143873997006
7.274264812469482,6.279311992728464,0.1077611192222858,2.507571405476778,1.7316763975360197,0.370336853622452,0.1370821474413416,3.471416580932849,-0.5118889616297331,1.271017377515959,0.160375531789676,1.1401420957453112
7.294198274612427,6.332905045344644,0.12075303254697727,2.511942249427718,1.8366741938510625,0.41235419956559827,0.16428913155796007,3.33204680235209,-0.8284733187675841,1.0995128267518004,0.16145466557826982,0.05395668942969056
7.3142249584198,6.370295749967019,0.12881449322231328,2.5154369473989155,1.9019385583317117,0.39281478485211246,0.1846386573389774,3.194734109060528,-1.1216078546586914,0.936907222615605,0.14773212100314614,-0.6861272287561837
7.334256172180176,6.389676550644442,0.13449970569207956,2.5171624831178065,1.9389621560398247,0.4303794005076947,0.1885427911101503,3.0463763890258067,-1.3834498087612195,0.7917613416660048,0.16195600369387098,0.7111941345362416
7.354339599609375,6.429055316306855,0.14281424485155908,2.521082405315911,1.9984290704812318,0.4002746033408978,0.2029915650271689,2.900774501097415,-1.6234326188976982,0.6543994541284839,0.14231063075617145,-0.9822686468849762
7.374252796173096,6.470571272620417,0.15302389472722497,2.5255175568888495,2.0807936964378704,0.42763928808910184,0.2215131964951158,2.785922113010237,-1.876098417445342,0.5274805747321167,0.15007651775214015,0.3882943497984348
7.394212245941162,6.535102263383465,0.16635497337722344,2.532625512747513,2.1876774825983234,0.40729564765755466,0.2427511414274731,2.6476599171486814,-2.1189693728222787,0.4063253159430475,0.13326413741382837,-0.8406190169155892
7.414324998855591,6.5793762972872765,0.1740620189759035,2.537554073438726,2.239276339892276,0.36267360703083984,0.24972432651453674,2.5127891738997357,-2.339570399610279,0.2921423906015072,0.11845107185534554,-0.7406532779241415
7.434242486953735,6.602749195150153,0.17867890002216985,2.5402752905540185,2.2899722911642577,0.37049181849437823,0.25773995711003506,2.672487129328689,-2.3263917951351885,0.1890745515740804,0.12127278722992507,0.14108576872897682
7.454131841659546,6.67336960369824,0.18969050734194398,2.548396187325004,2.3900493020200404,0.32702355861386634,0.2712629159844895,2.6993110297856373,-2.275977447270779,0.09101695444006914,0.10090746839914555,-1.018265941538976
7.474262714385986,6.721711884848062,0.19577930618295414,2.5538334178004902,2.4442446320479183,0.28203513086609705,0.27215360439393144,2.7190602302806846,-2.2223378456773952,-0.0009435144164374663,0.08748258367106398,-0.6712442364040783
7.494242906570435,6.771729672589786,0.20148392658861372,2.559713841232246,2.5120599251485225,0.24749022496414608,0.2819593239483397,2.6667383870251546,-2.2814289072357044,-0.1344362495607061,0.07591900502643467,-0.5781789322314657
7.5143280029296875,6.822500642398023,0.20597402257210898,2.5653176997963367,2.56485680471158,0.2013567155626127,0.2780120459705343,2.6126644826832837,-2.330231015729271,-0.2587858237616006,0.060970971853973044,-0.7474016586230814
7.534267902374268,6.848527180179473,0.20770448264396182,2.5683866911214195,2.5977776660269782,0.17317533385988687,0.2854329832626976,2.5815976865667536,-2.2888077387919226,-0.07029122426627897,0.05302382720901777,-0.39735723224776365
7.554234504699707,6.92793458792956,0.21155655798783102,2.57706075350827,2.6848144336222552,0.09734508610738037,0.28595356111797937,2.655954894337728,-2.021239578773854,-0.15303383234078102,0.027667598365082036,-1.2678114421967868
7.5742881298065186,6.982166624448251,0.21311653180728798,2.582743983576412,2.738610476599498,0.05950974563918459,0.2821123615296242,2.7223355074725855,-1.7640017506359165,-0.23016128604852357,0.016908376836005434,-0.5379610764538301
7.5943684577941895,7.0378470746332225,0.21287823301549683,2.588375443502657,2.8014365518962157,-0.0028945055574331174,0.2779004077233477,2.7218231424927146,-1.5499698408118787,-0.29765315562817163,-0.003179995033652183,-1.0044185934828809
7.614264726638794,7.094419964203002,0.2125242191606218,2.5938696690034866,2.855839275356513,-0.031819952308556554,0.27131361010985877,2.7178856920926675,-1.3438894222376692,-0.3602148123088077,-0.01192588309020337,-0.4372944028275594
7.634220600128174,7.15212829884338,0.20976883123219903,2.5992577710770077,2.909442262276052,-0.10479867162022327,0.26595200225277604,2.535964428738391,-1.2100554606082696,-0.22564460508405207,-0.03576310870734556,-1.1918612808571094
7.654201030731201,7.210812543973823,0.20743947861868858,2.6045401206175876,2.958398134027533,-0.12770978498860047,0.26269610190326453,2.360727555289112,-1.0820122951963305,-0.1016955635371143,-0.042908159601507734,-0.35725254470810874
7.674182415008545,7.240562701825303,0.20475365616697389,2.6070383556232035,2.9823078016641684,-0.17590212175979128,0.25838844163460073,2.194228896714875,-0.9457115099728538,-0.02997612464224409,-0.0579913902562339,-0.7541615327363083
7.694328546524048,7.331402729976182,0.19768469601856492,2.6144311635986712,3.0577649874346924,-0.2417444823535827,0.2485212789475632,1.992005578648919,-0.786743944082332,0.08956800461957666,-0.07590523580432951,-0.8956922774047804
7.714301586151123,7.392943444190062,0.1927025984353272,2.6194269320185715,3.0956652574491574,-0.2559657602228408,0.2514181385599011,1.7996493018176394,-0.6368859966987601,0.19834496756089254,-0.07756991613833142,-0.08323401670009556
7.7342071533203125,7.424506875383574,0.18888839284698292,2.621548628574976,3.1275607213984227,-0.2944581884482417,0.2409846828829179,1.6775997757004248,-0.3269926806059474,0.08849004256092467,-0.08766132505915891,-0.5045704460413747
7.754416465759277,7.487385716525861,0.1829535157792712,2.6263790476198494,3.1599327491767175,-0.2980612933698563,0.24171436633337737,1.5604053050358395,-0.03651793342727217,-0.014369234431922005,-0.08657093896522605,0.05451930469664301
7.774202108383179,7.5519406584383875,0.17484349594517432,2.630691312946114,3.2156016252759807,-0.3515762795180994,0.2287475581863763,1.4151995379258127,0.14346130175535787,-0.10207567776533186,-0.0997678894646219,-0.6598475249697922
7.794207572937012,7.616843151064796,0.166975969895668,2.635163915289774,3.252799894402994,-0.3767233510047361,0.22343760507785604,1.253765335964051,0.2408590378913993,-0.18076078809012325,-0.10340597476894509,-0.18190426521615954
7.8144519329071045,7.682139517782992,0.15949596227198617,2.6395915471186755,3.2763238005199553,-0.37096643072322394,0.2190817367481791,1.0998698995596339,0.33415422924905147,-0.2539153139462327,-0.10049254513052608,0.14567148192095036
7.83428955078125,7.748609152790241,0.1500857468435471,2.6438569844140383,3.315585655357986,-0.41275401045369303,0.2122138632427334,1.0241711297830234,0.5531437626999971,-0.3167196810317453,-0.11018587441437244,-0.4846664641923182
7.854434013366699,7.848933597445341,0.13687243155511652,2.6501148071964358,3.356455674635239,-0.4250272860353301,0.20326423863127427,0.9131507324192216,0.7517237317523555,-0.37256036857731,-0.11007275956665552,0.0056557423858460965
7.874264717102051,7.916238225396812,0.1285348382741876,2.6541020809373777,3.373656042021441,-0.40811204438608856,0.1952918654226654,0.8078251942192254,0.9377276839031108,-0.4239432304653325,-0.10505933035215076,0.25067146072523805
7.894262075424194,7.950293431591873,0.12360391236010175,2.6560824093707303,3.3870660619715265,-0.42260195014100765,0.1920981155284063,0.511844438365624,1.1060697707738014,-0.46772762362898773,-0.10876214851557098,-0.18514090817101092
7.914175033569336,8.018118320513898,0.1153837422119582,2.659828101830634,3.3944980921785475,-0.39889166525853975,0.18233811212132373,0.23441611476399676,1.2630938963713967,-0.5076347795265843,-0.10179848879731246,0.34818298591292596
7.9342310428619385,8.086765100936438,0.10625890864503065,2.6635461496111916,3.4162041043098044,-0.4068115663669608,0.17629956500359203,0.031413689497040195,1.431058175125002,-0.5409653193653481,-0.10379353707922956,-0.099752414095855
7.954153060913086,8.189924925174333,0.09392080903905149,2.6687163424047826,3.4358665678121953,-0.3832679596367626,0.1633928542604941,0.024820395149259957,1.7348502073974479,-0.5690521169972741,-0.09668586512078914,0.355383597922021
7.97423529624939,8.258646803695036,0.08662160647296512,2.67186867190126,3.436300811841368,-0.3457105124756857,0.15175678678015608,0.01867852631245948,2.0173936750012844,-0.5940460840838763,-0.08808677681491739,0.42995441529358747
7.994203805923462,8.293467168613692,0.08259245076477839,2.673484320442587,3.4492506626218775,-0.3422119029435616,0.14934332591169006,0.0659033535833317,2.307301252037398,-0.6145175610630615,-0.08780958797788951,0.013859441851393761
8.014498710632324,8.362468354105332,0.07622794157021867,2.676347054421679,3.451014883138023,-0.2933430039562975,0.13687084824381995,0.11000343852061616,2.576113100602968,-0.6322859367590179,-0.07532727774730841,0.6241155115290553
8.034270763397217,8.431596470640452,0.06947563625502591,2.679247496359968,3.4547849432272493,-0.27647415089997013,0.1315246715799913,0.22881159871703174,2.631424888439639,-0.6459566349884021,-0.07210946336879598,0.16089071892562146
8.054275751113892,8.500745401601261,0.06447589144698421,2.681748004734684,3.460474227684833,-0.22333152673408838,0.11848840904662239,0.3386376048030369,2.682067467663385,-0.6572848111011731,-0.05853800692045663,0.6785728224169674
8.07424020767212,8.569392546048306,0.05945049541911983,2.6843430451863335,3.4504475268534858,-0.19546635723709865,0.11422069607871671,0.3641842145835419,2.678749000866217,-0.6654478180391421,-0.0524161262671452,0.30609403266557145
8.094267845153809,8.672429900556477,0.054563339080528885,2.6876850829796974,3.441745921781198,-0.12134418350877417,0.10026378974463321,0.1964476952230726,2.6056205827906074,-0.6701845894769657,-0.0331027319228725,0.9656697172136353
8.114217042922974,8.741293388712194,0.052652719350678466,2.689556098581775,3.444074527219311,-0.06996054509377447,0.0868281223803964,0.037934631936159535,2.5327939815447698,-0.6730799563177242,-0.019726480644089772,0.6688125639391362
8.13424015045166,8.77526698566224,0.05227505195446706,2.690548053084584,3.4302880490550884,-0.03868828897170863,0.08444272244924843,-0.12085888884466653,2.487288759514111,-0.6738642374200549,-0.011194366544763135,0.4266057049663319
8.154188632965088,8.878066654353661,0.052779684388976136,2.6928711010697586,3.4243857420837265,0.05153281107137393,0.06679131816373418,-0.2626802008683037,2.4437812115784463,-0.6707990323236048,0.014897115228329039,1.3045740886546087
8.17417597770691,8.94649282791423,0.05429608993805569,2.6940730405281896,3.4177887527317314,0.09995565739819352,0.05341739412851504,-0.3955418522856288,2.398156461555496,-0.666369861119683,0.027686378233530373,0.6394631502600667
8.194187641143799,9.014915960021636,0.05778777709093622,2.6950700698222643,3.4127627532042095,0.17347913167612816,0.04156617674026487,-0.5313638724956378,2.3984178016123345,-0.6583902210160766,0.046975351293452317,0.9644486529960972
8.21424913406372,9.083056343426177,0.06173678798229346,2.695770299539132,3.400853148217978,0.22140471612464743,0.028486859361121032,-0.6580989439162366,2.3932478926424734,-0.649371535136252,0.05786398039119334,0.544431454887051
8.23422360420227,9.117170564960789,0.06475201286464644,2.6960340804768594,3.39764089432161,0.2651199262445176,0.02238161868160661,-0.7067212219862532,2.4427257401499918,-0.6386146563532703,0.06795309301060382,0.5044556309705239
8.254164457321167,9.218916811123828,0.07441955047786826,2.696407606499482,3.3798907410132326,0.35596635422620765,0.0030049698967916055,-0.7167543633989437,2.463020233662123,-0.6242566540032338,0.08981402063347677,1.0930463811436475
8.274267435073853,9.286370678809549,0.08203247803151527,2.6963438411426783,3.3654674097590918,0.40537036810909405,-0.00933169991253603,-0.7253402412669312,2.476213501787003,-0.6093154131116093,0.09842871298112055,0.4307346173821891
8.294227838516235,9.353466054409084,0.09149010023063466,2.6959937349373,3.3488411623101593,0.47645912566240467,-0.022474649746954532,-0.7053753781533695,2.5105403165112845,-0.5915214305485069,0.11414977871838561,0.786053286863253
8.314373254776001,9.420303101642661,0.101523263427256,2.6954271396196425,3.334927989004135,0.5269439937389517,-0.034124531871977684,-0.6860467414446519,2.5365838133085328,-0.5734167340262479,0.12280623575023153,0.43282285159229605
8.334282398223877,9.420205958604559,0.10183268671658519,2.695403806462951,3.331772519258936,0.5378733839072851,-0.03467853744959253,-0.6788821826477468,2.601324357658984,-0.5560808804195886,0.12370186909828584,0.04478166740271572
8.354171991348267,9.552526301788832,0.12609203440813593,2.693463686931747,3.2934814105371655,0.658825349692415,-0.05940287888108313,-0.7731400963449153,2.6687849377512483,-0.533908052768359,0.15137519820934653,1.3836664555530342
8.374208211898804,9.618235421062899,0.13980614944814362,2.6921703226175495,3.2771430961680443,0.7127680995240115,-0.06985986934930337,-0.8593695667463342,2.7233744127532207,-0.5118032855821772,0.1561452109178152,0.23850063542343314
8.394319772720337,9.683294625253264,0.15511167833306558,2.69058731500326,3.252752861476323,0.7798876851985164,-0.08190758490834986,-0.8582044527510386,2.7798135721747164,-0.4878194470829443,0.16959590543083936,0.6725347256512082
8.414435148239136,9.748178225574224,0.17126857697040165,2.6888531850496196,3.2356181134175115,0.8359517604343129,-0.0914263530819068,-0.8549226248177524,2.8246933312567246,-0.46410233743189017,0.17734351828819372,0.38738064286771845
8.43430209159851,9.780379938138548,0.1799860071158261,2.6878855199290768,3.2240456862021842,0.8705019909890881,-0.0966842683245818,-0.8252340410959864,2.8497208092585145,-0.440601612705614,0.18238725240689524,0.25218670593507575
8.45423936843872,9.844697790233338,0.19796716948855186,2.685865264834597,3.2078388743678525,0.9276651240243726,-0.10526398199122165,-0.7954289607520585,2.864988690694235,-0.4174239422189637,0.19213919585758443,0.48759717253445967
8.474341869354248,9.876552707924949,0.20753632374654915,2.6847565947433956,3.194682936517402,0.9609184398352711,-0.11022639372844575,-0.7668324242769259,2.9049342579663233,-0.39450075105098886,0.19580851858794324,0.1834661365179402
8.494187831878662,10.003255971054058,0.24849014460949384,2.6799516732921567,3.1523122208329406,1.0819604736868225,-0.12776622087735767,-0.7301802558695354,2.9065178570716292,-0.36835703577419127,0.21744991419962867,1.0820697805842716
8.514241695404053,10.06615861357715,0.2707102938653459,2.6773243888802103,3.138073578830359,1.1400285675150348,-0.13487717283908884,-0.6937162364950759,2.8987571425455534,-0.342842725109974,0.21987404167413116,0.12120637372512455
8.534256219863892,10.097155073936607,0.2823878862749052,2.67591518239294,3.121454233043944,1.1724286839611766,-0.1393349499285911,-0.6561169472697796,2.852532455111057,-0.31803723071066076,0.2253146991130186,0.2720328719443721
8.554177284240723,10.19012818660926,0.31901209314104856,2.671532606550887,3.0910641462980144,1.262573167492246,-0.15033602780100352,-0.6617166141805106,2.8126090713181062,-0.2919189672221962,0.238252255935254,0.6468778411117704
8.57431411743164,10.251816912251783,0.34482305365308213,2.6684692045229284,3.0778003316133264,1.318365707079946,-0.1559197031773276,-0.6641441061144442,2.7654599528729915,-0.26657727757185,0.24140635067467464,0.1577047369710316
8.594221830368042,10.312788594838594,0.37205134931142125,2.6652180019035567,3.053467655080584,1.3810682417129658,-0.1630464007192374,-0.6788847974169654,2.708773106159451,-0.24092494330732517,0.25007947338449377,0.4336561354909563
8.614179849624634,10.373721380282625,0.4002103622363438,2.66191055656617,3.0397745040576964,1.4346223703435188,-0.16761545273449416,-0.6898021987125241,2.6455726792372563,-0.21612067177371325,0.2533604039648849,0.16404652901955696
8.634170770645142,10.434090675273946,0.4298151469252113,2.6584257020372033,3.019192672215952,1.4968203360547356,-0.17398013035267038,-0.6724637510747143,2.591912313687621,-0.19115162124555482,0.26077202916432274,0.3705812599718916
8.654540777206421,10.49434125970617,0.46026601697870206,2.654909488364068,3.0059280664882855,1.5480651242484254,-0.17756102363627824,-0.6537759027169948,2.53145267645199,-0.16708740175250408,0.2630901544715396,0.11590626536084336
8.674294233322144,10.524226069384357,0.47614773450916464,2.653063625531925,2.9960122007511933,1.5808804187967374,-0.1807850335736347,-0.571389323223262,2.4979789938273838,-0.1440347797644974,0.2667113738800646,0.18106097042625002
8.694360494613647,10.613646682630295,0.5249842388527469,2.6475016630430033,2.973973588534507,1.6635721984482008,-0.186990509176356,-0.4419885515353717,2.4606476151691026,-0.12037987032186585,0.2737262987940534,0.35074624569944035
8.714404821395874,10.673046034702807,0.5587448581949258,2.643739305418542,2.9663697765731123,1.712334407760128,-0.1891696268809662,-0.3195387100084071,2.4140541083732816,-0.09769168680780896,0.27385346463685556,0.006358292140107302
8.734262943267822,10.702398211905658,0.5762079164252096,2.641784873079314,2.9555374856019867,1.7422840647893494,-0.1915847448060074,-0.20076611715848697,2.376200859869978,-0.0761385245102816,0.2774479891015784,0.17972622323614296
8.754174947738647,10.79048877278059,0.6297482885923461,2.6359394651481254,2.936224525161097,1.818738227062988,-0.19547691071472154,-0.12189427199377233,2.3117953451687354,-0.054331475161751,0.2813028380257734,0.19274244620974823
8.77420711517334,10.84919397390366,0.6665807460962334,2.632020464884703,2.9345472789023637,1.864268129002645,-0.19635372107737092,-0.04638570628641355,2.2399812873974647,-0.0335128145082152,0.28039185474996087,-0.04554916379062579
8.794219732284546,10.907184009583828,0.7045787077607535,2.628019118977171,2.9171180757184385,1.9153844969937255,-0.1979634339794891,0.02264732993674818,2.1938828958775725,0.053069000824144244,0.2842548344250475,0.1931489837543321
8.814292192459106,10.96553535293984,0.7433216198806616,2.62407592633189,2.9182364065941715,1.9587211223321188,-0.19608782020538898,0.08869224483177615,2.1382103827283854,0.1334743868031692,0.2818947791034172,-0.11800276608151528
8.83423113822937,10.99434706862504,0.7631960956116906,2.6220458991678175,2.9087242171950995,1.9850518621280877,-0.19715126034315275,0.09790114778921544,2.123942650869619,0.10699823275261423,0.285211657239846,0.165843906821439
8.854191303253174,11.081351314415771,0.823872085975095,2.6160938622265135,2.9036040706921415,2.0527231466329465,-0.19607451321607763,0.12938171790447062,2.037647452638077,0.1154821794252766,0.2840568245622981,-0.05774163387739506
8.874248266220093,11.139451323915535,0.8653279655394677,2.612196009646781,2.90649869039222,2.092553292188327,-0.1936840838783438,0.1599252912889421,1.9441965868857578,0.1234805956849601,0.28218724410783613,-0.0934790227230975
8.894249439239502,11.19734471059138,0.9077555823798454,2.6083256554277265,2.9036386438611754,2.135319490444459,-0.19158528194586394,0.20459545370906976,1.8350402622366042,0.13114415757601064,0.2824244983742932,0.011862713322852159
8.916460990905762,11.255461116827938,0.9508213390332687,2.604520665587114,2.9081333662839284,2.1708681755111954,-0.188889748374931,0.24401387611412007,1.718645114328574,0.13833043657746127,0.27847670689296766,-0.19738957406627566
8.934194087982178,11.313490373569216,0.9948464613560738,2.6007773366798466,2.9092707196776297,2.211251752818085,-0.18588449474204025,0.33239184216375306,1.6175929634111506,0.14498416985708326,0.27881698898026475,0.017014104364854177
8.954425573348999,11.371673111968496,1.0395188563060058,2.59709223925563,2.9140824640809315,2.246899913807046,-0.18281588710706315,0.39725924718222105,1.5080277854746382,0.15113452803461322,0.2760357198565946,-0.13906345618350802
8.974299192428589,11.430038303398279,1.084750902746102,2.593466536356856,2.9226373423807983,2.2759227428157085,-0.17973536973849,0.45746015689953473,1.3934351598958803,0.1568445904292368,0.2714770160281632,-0.22793519142156882
8.994292736053467,11.48835392988133,1.1309136051487088,2.5899167790410376,2.9267331556121645,2.3120199058074706,-0.17619600220870954,0.5357352072967356,1.2778806514237604,0.16196611183886175,0.27035679792362854,-0.05601090522673324
9.01425576210022,11.547000625759303,1.1774015730557468,2.5864255731131833,2.9381752531442014,2.3363716372638814,-0.17290888413925617,0.6073843133561673,1.1563104811294418,0.16667819019271948,0.26359323266953094,-0.33817826270488016
9.034321308135986,11.576268650946773,1.2010562711174795,2.584720531868521,2.940773014070835,2.353066505721106,-0.17074039566537455,0.6748077448583802,0.987974718336479,0.17076615089945035,0.2659288705374583,0.11678189339636713
9.054275751113892,11.664617761587875,1.2724116554753258,2.5796942373022795,2.955854810039736,2.3900532501306704,-0.16503282033498115,0.6527726490082069,0.7702349171474158,0.17429446135188364,0.25553041500736784,-0.5199227765045222
9.074238538742065,11.723863893500722,1.320352408873917,2.5764286573377198,2.968681628282386,2.4033067902787737,-0.16151458944093383,0.6297474124027421,0.5556453198896195,0.17747059855902778,0.25138978391157085,-0.20703155478984936
9.094231843948364,11.753511481673792,1.344747582386585,2.574842222660972,2.9731145575641515,2.4168440820971178,-0.1591630881925134,0.614573336838067,0.3622593347096571,0.18009210419077684,0.25212381445385024,0.036701527113969235
9.114230155944824,11.813095700321549,1.3931442798115417,2.571695138255067,2.9852583511424413,2.4221980995247123,-0.1555376659590029,0.5998863446874931,0.17399004312717764,0.18239815887412056,0.24133612551541983,-0.5393844469215203
9.134235858917236,11.873063220727673,1.4424970425339758,2.5686332469503266,3.0014231458822773,2.4463018994819725,-0.15159193740588756,0.6201246699793035,0.0018020702096053567,0.18421227471229037,0.24020875375258344,-0.056368588141819664
9.154245376586914,11.9635446028315,1.5164588324540598,2.564175029009322,3.023899098623254,2.460537957751428,-0.14584577340438382,0.5357144324900623,-0.2366836988659633,0.185543873759671,0.22761028383634985,-0.6299234958116795
9.174294710159302,12.024124244731398,1.5656067415975596,2.56129529771968,3.033793327430241,2.453483673001183,-0.142123805122302,0.4541844421290779,-0.4674705661417257,0.18660911586536752,0.22198597066782133,-0.2812156584264258
9.194242238998413,12.085248544265585,1.6153450348324119,2.5585178683234444,3.0520233347855856,2.4616344588236427,-0.13766796405399517,0.41828127046589003,-0.6726789039488815,0.18710032418072392,0.21634087492401655,-0.2822547871902392
9.214259624481201,12.146370240738552,1.664429837313842,2.555801950396609,3.060024457566912,2.446183694676083,-0.1339229523579619,0.3817254267229859,-0.871308843392865,0.18736330517618396,0.20619720651691775,-0.5071834203549397
9.234182357788086,12.177324291911503,1.6893595947701359,2.5544996215986786,3.0733759188317644,2.4503795712165046,-0.13123987351501568,0.3786077211497194,-1.0450394190693313,0.18720034104837843,0.20857008261849508,0.1186438050788663
9.25420069694519,12.270038335769312,1.7629738334669551,2.5506870754282693,3.094183176749088,2.433787350250125,-0.12444440693000104,0.35148175418675515,-1.2073600992264972,0.18633343592888077,0.1905671386475456,-0.900147198547474
9.274193048477173,12.331990526939332,1.811397656288108,2.548235388236483,3.1009481600534494,2.4080784136865674,-0.12072772958257819,0.325147486395944,-1.3623178408306282,0.185308312403876,0.1857145442511121,-0.24262971982167425
9.294284105300903,12.363314495590153,1.8358168411379936,2.547092391018357,3.112650010221745,2.4046423797030614,-0.11728454330538875,0.3270910416089331,-1.4893793233978985,0.1837671504432956,0.1848893304137902,-0.041260691866096266
9.314379215240479,12.425632964694241,1.8836035966283113,2.5447833448539185,3.1191981432292715,2.3736265605546576,-0.11362560754698581,0.32746478675152646,-1.6113633570281551,0.1821068909189064,0.17049853076588795,-0.7195399823951121
9.334294557571411,12.488479817393824,1.9313152836999743,2.5426593986006134,3.135279364389915,2.354237658130606,-0.10715076859012972,0.3104109725368628,-1.687888759256691,0.1795000681911838,0.16709455373325488,-0.17019885163165327
9.354317665100098,12.551246333102698,1.978057427844081,2.5405521067220147,3.1413142479922787,2.319726368567967,-0.10358728972731214,0.2930238184728594,-1.7630050066515293,0.17683897058013626,0.153634050658356,-0.6730251537449439
9.374266386032104,12.614439175665,2.0243619313133157,2.538647113396247,3.1543114674533705,2.289655694862191,-0.096772051643027,0.23440975182352783,-1.8449994994679817,0.1732087819357155,0.14933266037159187,-0.21506951433820642
9.39418649673462,12.709380437887523,2.0922158208392134,2.535908649698315,3.1663987749822287,2.232754061530929,-0.08914209620985807,0.12311561103868296,-1.982640482693275,0.16874891908020406,0.1327320367549718,-0.8300311808310035
9.414398908615112,12.77272586294115,2.136465440878296,2.5341592635446877,3.167789111131743,2.191765307445469,-0.0858111647750887,0.016728341472509393,-2.1154320311546075,0.164355227326531,0.12583529541585126,-0.34483706695602745
9.434203863143921,12.804667556799808,2.1581868136177196,2.533389307066884,3.1747695068657626,2.1670427196191824,-0.08193877950231121,-0.08366988655720034,-2.2220942542086064,0.15964201904511374,0.12489625354671707,-0.04695209345670914
9.45415449142456,12.900296095888836,2.222196269269138,2.531083671249394,3.184063862545619,2.099950065870185,-0.07489186190691116,-0.1255811704820269,-2.256005809510374,0.1542435192580903,0.10496253275038381,-0.9966860398166633
9.474275588989258,12.963949603321586,2.263741860778783,2.5296163298184213,3.1811565123436147,2.0544995169415796,-0.07185981024482199,-0.16469279770982156,-2.2888764209976196,0.14898476903481592,0.09964413526716775,-0.26591987416080265
9.49415397644043,13.028107441737841,2.304182789548069,2.528317797971127,3.190934713922457,2.0028511645859415,-0.06625909291809741,-0.2575912152980063,-2.354422528249215,0.1432238594418425,0.08898263664581751,-0.533074931067512
9.514302253723145,13.091868618024604,2.3437646550367734,2.5270208856239322,3.184886120854321,1.9551233182202916,-0.06345075952177853,-0.34663050554416835,-2.418042656437057,0.13763849474484416,0.07878074235469423,-0.5100947145561641
9.534189462661743,13.123994710299536,2.3629409539438635,2.5264469213899354,3.1888556516214384,1.9229854584724715,-0.060624336486773005,-0.4508221754441147,-2.480502344394855,0.1320995729724916,0.07942785337468772,0.03235555099967424
9.554188013076782,13.219806453790241,2.4192574008179126,2.5247313294340783,3.1846117886408942,1.840747027589262,-0.05548571014452765,-0.5328018492675478,-2.530557106532511,0.1262812251758502,0.05874266834947983,-1.0342592512603943
9.574166774749756,13.283386834873363,2.455562983510301,2.523646493646081,3.1731644270384107,1.7896504175449885,-0.05301659417049121,-0.6113705931285128,-2.578804744738793,0.12066351044710871,0.05372744185675282,-0.2507613246363505
9.594223737716675,13.347223412231903,2.490402311601862,2.5226574578949523,3.17288081467561,1.7268073656342795,-0.049484926622602746,-0.6642474629181808,-2.6187415847522786,0.11503680033390352,0.04315674186369556,-0.5285349996528632
9.614267110824585,13.410544731308061,2.524412131736042,2.5216904018136397,3.1590799904119,1.6740470853315907,-0.0472387586122697,-0.7155784477489061,-2.6570107745603453,0.1096136065351434,0.032878945567202944,-0.5138898148246307
9.634226322174072,13.44239710666839,2.5407348511720893,2.521251134181906,3.1603598330316265,1.6390628106627647,-0.04541116590460791,-0.6987639820455871,-2.684081799769771,0.10444755387233494,0.03424321508338046,0.06821347580887593
9.654163599014282,13.537104773804773,2.588431521338517,2.5199594373777217,3.1451021937843247,1.5512565147739346,-0.04167029185248252,-0.6964842318124315,-2.6335992573699527,0.09920297492357387,0.013762039676981086,-1.0240587703199688
9.67421841621399,13.599867684251874,2.6189331670698164,2.519145532576992,3.1311972083778685,1.499067674829841,-0.039736999931720536,-0.6939771405268347,-2.5857135099602178,0.0941593976001657,0.008603625377114454,-0.2579207149933316
9.694244623184204,13.631201187487168,2.6334516358302404,2.5187566848146905,3.1252486748133146,1.463363560315252,-0.03878301195207143,-0.7373140590486554,-2.5690484183167945,0.08954032323749792,0.0063662861125819425,-0.1118669632266256
9.714158773422241,13.693555986308946,2.662206204084651,2.5179986335177458,3.1100985268011496,1.4121485245646836,-0.03703692849536005,-0.7771197346533186,-2.552470799423161,0.08509704135863895,-0.007787247102751582,-0.7076766607666762
9.73422360420227,13.755572032598456,2.6892450926485756,2.5172419583193197,3.0934373544665656,1.3438945571606074,-0.03628124927961897,-0.8199871303090888,-2.5251281543455355,0.08115325962319721,-0.013074656037357801,-0.26437044673031096
9.75437331199646,13.81727408995796,2.715619744329389,2.5165323083188023,3.0766364866778337,1.2936593090714188,-0.03469641450634563,-0.8595569519766862,-2.498518674216035,0.07735409411279384,-0.01974585396398032,-0.3335598963311259
9.77420973777771,13.878646773697058,2.740292322626629,2.5157953169649154,3.059727435014482,1.2264086175290807,-0.03464378339518049,-0.8787577231253222,-2.4789490496932154,0.07414879437415979,-0.03381401476950874,-0.7034080402764209
9.794243097305298,13.939682319937956,2.7640834466352393,2.5150952802735302,3.0426472218360425,1.169182421491589,-0.03391528959107376,-0.8852827010885288,-2.43289816731531,0.07126206448579993,-0.03710029762593203,-0.16431414282116474
9.814347743988037,14.00035783016395,2.78698348798804,2.5144310389950046,3.0248858573689335,1.1209687292488113,-0.03251815814501499,-0.8906662715443942,-2.388793072799069,0.06846607345787639,-0.05006165113790084,-0.6480676755984405
9.834320545196533,14.060669720997035,2.8083097476845422,2.513733407027248,3.0069870242295162,1.0581171203714133,-0.03270401529349449,-0.8482707407780319,-2.3552399381889133,0.06619419823693125,-0.05614456156200287,-0.3041455212051014
9.85420036315918,14.150393858886275,2.838609198328667,2.51273377849864,2.97895244125341,0.977088189899708,-0.03213312623913522,-0.7744953277030512,-2.2901521621818124,0.06426082257485297,-0.07076787789961081,-0.731165816880397
9.874382495880127,14.209822659868578,2.857697107019186,2.5121038411476144,2.9641558267500234,0.9319087407463816,-0.030866926894540063,-0.7060422020912777,-2.228332735387596,0.06236540692083241,-0.07797911496880694,-0.3605618534598065
9.894440174102783,14.268968870947845,2.8758935755676287,2.511498851212038,2.950676148729723,0.8879334709000148,-0.029638259426128723,-0.642779742484857,-2.1697247462217724,0.06050757169279259,-0.08869981121331127,-0.5360348122252168
9.914300680160522,14.297909507721563,2.883880477602806,2.5110737957158213,2.932151762815723,0.8494305681955137,-0.03204717265867293,-0.5841516341424563,-2.103637335176068,0.05954163040154854,-0.08761231373917999,0.05437487370656413
9.934383153915405,14.356439377781108,2.90045258509269,2.5104446952789843,2.921014501164663,0.8079883559252612,-0.030866151330786826,-0.5303721252238367,-2.0411836174576825,0.05855755342687549,-0.09402941406548093,-0.320855016315047
9.954238653182983,14.414156485067908,2.915612494865454,2.509731063329141,2.895946488194056,0.753168041670649,-0.032409068519255645,-0.46981045246213315,-1.956882870158682,0.05821368235055914,-0.10632108885533142,-0.6145837394925246
9.974263191223145,14.50043839781531,2.9369663999140867,2.508714122183959,2.8712641174266653,0.6851972132287207,-0.03267692611832744,-0.4281728313383467,-1.8388804826010736,0.058225308172120974,-0.11564046185647925,-0.4659686500573912
9.994388103485107,14.557780731585723,2.950310045493977,2.5080722253709387,2.8631020742023985,0.6495348070262473,-0.031512990478409525,-0.3883279965251597,-1.728638854168828,0.058154759654066045,-0.12410251365834535,-0.423102590093305
10.014107704162598,14.614464195842363,2.9624214012187315,2.507353504831805,2.8433058744932223,0.6021981923823647,-0.032844253364530125,-0.348908575256045,-1.640788275805859,0.058554512090745456,-0.12902593866576684,-0.24617125037107446
10.034401178359985,14.671095540439216,2.973926888162811,2.5066718444599734,2.831101868607136,0.562860721459812,-0.032882033956011046,-0.3165861000172293,-1.5802839657898489,0.05909412744764131,-0.1344859074923015,-0.2729984413267328
10.054288148880005,14.727656340094047,2.984871860425472,2.5060260525002294,2.8250808291011755,0.5318236351077917,-0.031695767112775004,-0.2857659797740852,-1.5241431159647199,0.05951265501844062,-0.1438833773138284,-0.4698734910763447
10.074154615402222,14.783701734264191,2.9947104026599263,2.505319595629678,2.809530882256019,0.48952125006821223,-0.03255189491570521,-0.2869468627349831,-1.5052903109392433,0.06021320581052232,-0.14771204603578747,-0.19143343609795416
10.094207763671875,14.839834928046463,3.0042009439056576,2.5046806402492248,2.803787495088547,0.45959023377716485,-0.03134176133813876,-0.28724761792253944,-1.4880818189912817,0.06077780571595668,-0.15761817111953258,-0.4953062541872555
10.114246129989624,14.895571380666652,3.0128214943859706,2.5040168685583506,2.7914191186077,0.4237143689512767,-0.03125901692164206,-0.2797629469503005,-1.4693711628357875,0.06135856710502398,-0.15992893633252647,-0.11553826064969464
10.13418436050415,14.951344330817555,3.021003043698646,2.5034039919644586,2.78590226243587,0.39449554505682494,-0.030027150619836147,-0.27185348325881525,-1.4528753346940948,0.061806183715412626,-0.16452255518854964,-0.22968094280115814
10.154258966445923,14.979095878082232,3.0248400396543187,2.503098853431319,2.780562949507347,0.3794873877083718,-0.029598802214455405,-0.279950409809363,-1.4129118666595646,0.06210402237509848,-0.16816314680716093,-0.18202958093056498
10.174204111099243,15.062348860669845,3.035603308164604,2.5022443013216504,2.7712369789098257,0.3379323383220569,-0.027560386058489525,-0.27543066456539306,-1.369498800358544,0.06208334764818849,-0.17790425880647875,-0.487055599965891
10.194195985794067,15.117718863195506,3.042090758783339,2.501705503848245,2.765781508006538,0.3109447712967024,-0.026319765014017445,-0.2699609260312268,-1.3298829049438348,0.06196227895853214,-0.18451436122382825,-0.33050512086747474
10.214241743087769,15.145367490176392,3.045171390715612,2.5014570252939823,2.763204609211924,0.29919202268265604,-0.025365496880609604,-0.2772872888360073,-1.2767382036452226,0.06161191839932693,-0.18117938355826047,0.16674888327838921
10.23415470123291,15.228168494740748,3.053578635566009,2.500737702201286,2.7556985446951567,0.26154826122215513,-0.023120532165496407,-0.28952412833748253,-1.2183156504993964,0.06092350626241518,-0.1927427041174039,-0.5781660279571721
10.254291772842407,15.283223826257633,3.058569593319335,2.5002874273636606,2.749799212468011,0.23772636340927533,-0.021909445401062447,-0.3001432392074604,-1.1646589655006814,0.0601754010082108,-0.19786158062814563,-0.25594382553708606
10.274155616760254,15.338265167396955,3.0631119502304385,2.499884744645242,2.746590315876231,0.21537988366195013,-0.02012013963380562,-0.2999340628440021,-1.1114242327952855,0.059105528117239764,-0.19990216042288367,-0.102028989736902
10.294171810150146,15.393137046952425,3.0672005669121813,2.499494089898774,2.7406013971787293,0.1936429476640563,-0.01894901616061023,-0.29880729444673293,-1.0630732766639848,0.058001210208745255,-0.20868687993615342,-0.4392359756634878
10.3142831325531,15.42062971922838,3.069105223688275,2.499326132462015,2.740520688020517,0.18437531521552517,-0.01784161897578575,-0.30057814043953685,-0.9813114299394383,0.05672841472975301,-0.20365676570271285,0.25150571167202873
10.334142446517944,15.502816059991652,3.0741827900162284,2.498837380032467,2.7344776050421284,0.1550743700798223,-0.015554238674702424,-0.30746825097315844,-0.9208430403489227,0.055142230039791115,-0.2140945711431015,-0.5218902720194318
10.354291439056396,15.557443707755125,3.077103873069743,2.498537218080253,2.7282674356362016,0.13721775810643994,-0.01446723543524068,-0.31338939096278845,-0.8656940562476269,0.05355857541305803,-0.2183985901085923,-0.21520094827454095
10.374285221099854,15.611946031182656,3.079678505454572,2.498258479666473,2.721948313492535,0.12041199859251385,-0.013411874004734311,-0.3183679176147922,-0.8157364577568403,0.051978168803193434,-0.21942588047984968,-0.05136451856286861
10.394189834594727,15.639384115871787,3.080833000180743,2.4981672946848454,2.7238424622171924,0.11255353964813891,-0.012012146930881765,-0.3364444662720634,-0.7637173636804585,0.05016484185385282,-0.22318339934818265,-0.18787594341664882
