t,x,y,z,vx,vy,vz,ax,ay,az,yaw,yaw_dot
8.18803095817566,-2.277564275057629e-05,7.157178009215234e-06,2.008016291829892,-0.003392783998601028,0.0010663217569817896,0.002440796458706139,-0.33457732515851435,0.10518472429367894,0.24089642971930816,0.031415926535897754,1.5707963267948966
8.207935810089111,-0.0001784534087197353,5.610229293060108e-05,2.0081283996868224,-0.013197331637375975,0.004150198410686964,0.0095100413087221,-0.6412904449723388,0.20179086442832905,0.46291944354389525,0.06283185307179551,1.5707963267948966
8.227969884872437,-0.0001484735908891516,4.6780992543521645e-05,2.008136696834117,-0.015642662617837397,0.00491506261776588,0.012420930183156457,-0.9117368271073882,0.28562844999556897,0.6687451842430113,0.09424777960769326,1.5707963267948966
8.248157978057861,-0.0006604493026195374,0.00020741440436387228,2.0085316997301166,-0.03637304385933328,0.01140231408190895,0.02770654450747064,-1.1571879190959926,0.36184236062701364,0.8569077911670755,0.12566370614359101,1.5707963267948966
8.267877578735352,-0.0002936499865676356,9.568422239587529e-05,2.0084199609314424,-0.026794886232779272,0.008515806634183961,0.025422565346746848,-1.3644805338961556,0.428498108313786,1.0342853509948635,0.15707963267948877,1.5707963267948966
8.287843704223633,-0.0007870349273011435,0.00027806949267575147,2.0094589835246857,-0.04187074689703023,0.013669546187395895,0.048925051781952514,-1.5605201291363477,0.46411902730635496,1.197786626868418,0.18849555921538652,1.5707963267948966
8.307888984680176,-0.0019485302034362177,0.0006464286498765009,2.010687126063673,-0.07485964291635683,0.023269811332511867,0.07437999953145896,-1.7347882624242326,0.4951536816301365,1.3450325820912912,0.21991148575128427,1.5707963267948966
8.32791256904602,-0.0019317394066165256,0.000685910597347454,2.0112251059104986,-0.0700966146954324,0.023162007918702193,0.08163115283316684,-1.947897627926168,0.6115229216326169,1.499349257481078,0.25132741228718203,1.5707963267948966
8.34800100326538,-0.0037361992206687666,0.0012786682166560169,2.0131670504165555,-0.1109760883418668,0.03646543894241951,0.11302213761338167,-2.1359252839834157,0.7170329239427183,1.6370082760617808,0.2827433388230798,1.5707963267948966
8.3679678440094,-0.004112856763595901,0.001471337650021806,2.014065850134349,-0.10868654532623771,0.038406543409875274,0.11960310888248026,-2.1274962318892903,0.8014370726956637,1.5047782341713896,0.31415926535897754,1.5707963267948966
8.38784909248352,-0.009085218340507928,0.003185967880486295,2.019829355807332,-0.16691747511800786,0.05982544385636752,0.17432613273376968,-1.9682462693871463,0.8940470632329768,1.372089894512476,0.3455751918948753,1.5707963267948966
8.407957553863525,-0.012806758477393217,0.004566986347444535,2.023581723895349,-0.20471622679916443,0.07855362569261412,0.20048655897568268,-1.8121522021567515,0.9772179162731,1.2448531272981902,0.37699111843077304,1.5707963267948966
8.427885055541992,-0.014685518064580315,0.005113167695602803,2.025730732061771,-0.21611615033113746,0.07829751165343427,0.21538836862841607,-1.8017063747559192,0.7523713211747983,1.2429496208570179,0.4084070449666708,1.5707963267948966
8.447938680648804,-0.019367152542320007,0.006815281333454847,2.0302867513315137,-0.25199033822050254,0.09120948711982757,0.240193195542159,-1.7846217721595956,0.5410568760419774,1.2368428433524183,0.43982297150256855,1.5707963267948966
8.46784496307373,-0.02476242076462165,0.008734258910289146,2.0353373717567673,-0.28745802835714507,0.1000280244082059,0.26483488599641364,-1.7610882405068475,0.34297808787303985,1.2266566109329513,0.4712388980384663,1.5707963267948966
8.487921237945557,-0.030861915647028785,0.01079085902773807,2.040878522971768,-0.32239214062132737,0.10501487172783103,0.2892330890543683,-1.7312956259367411,0.15783846366638773,1.212514739747175,0.5026548245743641,1.5707963267948966
8.507956504821777,-0.03866935106040345,0.013622876058170688,2.0475534823811996,-0.3764565078927797,0.12932772455491992,0.32328445364012176,-1.7942332157922438,0.1493852315820134,1.2123546627816564,0.4712388980384663,-1.5707963267948966
8.527919292449951,-0.04674254622755821,0.016615716819604748,2.054325145708914,-0.42026777834430534,0.14017348061413906,0.3516901699335785,-2.0267310136738463,-0.4349614804008483,1.4757517441627404,0.43982297150256855,-1.5707963267948966
8.548022270202637,-0.055567320003189175,0.01929554691891136,2.0616703347329777,-0.462889761728293,0.12601513324741767,0.38361872799215413,-2.2307927143574684,-0.9732991075490469,1.7127614581910586,0.4121754566842788,-1.3823757409144877
8.568052291870117,-0.06530412013907891,0.02321612548609526,2.0692360770644536,-0.506640424271676,0.15041431473780165,0.4045569066002783,-2.219933915774438,-0.804299521966431,1.7689827631935506,0.44359138322017655,1.5707963267948966
8.587830543518066,-0.08130510983593886,0.028618064664543464,2.0814426040212095,-0.5687126439949758,0.1640543685736019,0.4370220488175861,-2.3079636810107664,-0.41622884080271594,1.6954345683664336,0.4750073097560743,1.5707963267948966
8.608052730560303,-0.0931459489353535,0.03184030308906523,2.0905171786001095,-0.6156065841639948,0.1593650660190326,0.47018692677244855,-2.378567432751699,-0.057539425266907036,1.620890534507947,0.44359138322017655,-1.5707963267948966
8.628128290176392,-0.09933100684922821,0.03393474292071924,2.0948142901144946,-0.6369453457519666,0.1724789550824779,0.47225737147149266,-2.3779354821405048,0.05338044517134856,1.5995971227770371,0.4750073097560743,1.5707963267948966
8.647932529449463,-0.11254490037345993,0.037401897383017184,2.1045776926262185,-0.6844048348781786,0.17457331632628015,0.5039956444398581,-2.3661896510247806,0.1544322482465992,1.5734287600155812,0.4994499428543513,1.2221316549138495
8.668018817901611,-0.11949586702064899,0.03868718728816938,2.109385203650415,-0.706988116846275,0.15884336763313256,0.5115335043608673,-2.222818847553887,-0.25144455198514687,1.6493535769539194,0.46803401631845354,-1.5707963267948966
8.687816381454468,-0.14997301281523095,0.044326631634954365,2.1306236223666537,-0.8046902878256366,0.1328045660980853,0.5621932165656125,-1.9033374788286115,-0.8743800651322416,1.4045224630192048,0.44253719382951395,-1.2748411244469793
8.707952737808228,-0.16642650926737704,0.04676885244375168,2.142132693470345,-0.839615897963554,0.10950945447232303,0.5879392944904176,-1.5903001774583503,-1.4468189492598,1.1721383778002337,0.45557292512933323,0.6517865649909638
8.728013515472412,-0.1754744083692653,0.04832273105700644,2.148019877580072,-0.8684436279557789,0.11709720150865718,0.5968743088538734,-1.1196149602423398,-0.802187941809587,0.9666180402173441,0.4241569985934355,-1.5707963267948966
8.747990846633911,-0.19303683628025659,0.050544751155897426,2.160137524421407,-0.8862974677047661,0.10709003759266092,0.6142410977547269,-0.6691002206054179,-0.20659846319750624,0.7718310434216904,0.45557292512933323,1.5707963267948966
8.767988920211792,-0.212797557115737,0.05381660680081422,2.1730704756003516,-0.9438057492281824,0.12627572118389033,0.640867957861077,-0.03796599710539466,-0.28507270898555975,0.5955367965841687,0.4826317174276342,1.3529396149150497
8.788058757781982,-0.24293225316687916,0.05704789363478651,2.1929037965139413,-0.9968603676716202,0.09753299057969819,0.6693546820816819,-0.014253400260627358,-1.1827611628612336,0.7484875068108839,0.45121579089173647,-1.5707963267948966
8.808011054992676,-0.26287020361939495,0.0587058670606061,2.2064499448199486,-0.9968207130016823,0.06551864686780765,0.6857142140498457,0.019929007588965632,-2.006503658507095,0.8847143623527856,0.4197998643558387,-1.5707963267948966
8.827944278717041,-0.27443360303021114,0.059196636411475406,2.21342196071091,-1.0406038235789066,0.03822321567733139,0.6947416469263016,0.09393072386432373,-2.8634467662859566,0.6835022659855802,0.38838393781994096,-1.5707963267948966
8.848030805587769,-0.29522146339377836,0.05933491444561287,2.227440629408285,-1.0379026313897697,-0.027010555472492728,0.7064910375462709,0.17779822712559093,-3.6480199860249103,0.49324279956353745,0.3569680112840432,-1.5707963267948966
8.868042707443237,-0.3176024918827812,0.06095136828150883,2.2418293276499246,-1.071840672517706,-0.028946637415341637,0.7201885066665783,0.44968324735261817,-4.380635894592244,0.3250338661664315,0.38838393781994096,1.5707963267948966
8.88782000541687,-0.35037551385968413,0.06106350320303547,2.2639769328088697,-1.081056034994856,-0.08032741711468391,0.7403861230673244,0.537342442608414,-4.942804251266627,0.16867509496118085,0.3569680112840432,-1.5707963267948966
8.907979726791382,-0.3718830052832702,0.058433980346451996,2.278808419077857,-1.0693799377143587,-0.18429523727413502,0.7422713975260459,0.6312879219192402,-5.44394208528496,0.021339932775309347,0.32555208474814545,-1.5707963267948966
8.927886724472046,-0.38325241553206396,0.05903757707172006,2.286760197789193,-1.0821859391519755,-0.16589255840829836,0.7560276260998257,0.7247613480523406,-5.8728971864249635,-0.19069842532887493,0.2941361582122477,-1.5707963267948966
8.94801664352417,-0.40474467668336794,0.05451924843371969,2.3018292429204714,-1.0667104824206788,-0.2871909046739999,0.7502211244357782,0.8236644514038971,-6.248101471191819,-0.3874336970549299,0.26272023167634995,-1.5707963267948966
8.968101978302002,-0.4268903225355189,0.05121733345721021,2.318027144499709,-1.0728154483678274,-0.3246606771972603,0.7734251228886425,0.9777701540887865,-6.481759457450381,-0.5696255340771152,0.2313043051404522,-1.5707963267948966
8.987871408462524,-0.45910719632764574,0.04017434136588399,2.3419486520182007,-1.0550400285531103,-0.4757099698028007,0.7834031496260359,1.1715760765417969,-6.630446266958589,-0.665833335192734,0.19988837860455444,-1.5707963267948966
9.007982015609741,-0.4799610665067794,0.029325631933626913,2.357477477907192,-1.0297212876133548,-0.6095575370665358,0.7691815669456588,1.3592876765085993,-6.7494292448557145,-0.7551977016707714,0.1684724520686567,-1.5707963267948966
9.027921915054321,-0.500733606246136,0.01717150850753789,2.37408490434797,-1.0120584726865938,-0.7116114606553361,0.788174410435075,1.5267716277949657,-6.717947601729919,-0.7581409169435799,0.13705652553275893,-1.5707963267948966
9.048032283782959,-0.5206584314322836,0.0015988263394177645,2.3896965221675575,-0.9798774867921909,-0.8454829311174754,0.7729745073734129,1.6907389946683233,-6.665810879631678,-0.7619997062836212,0.10564059899686118,-1.5707963267948966
9.068054676055908,-0.5305626536522955,-0.0068694318272238385,2.398138636663418,-0.9666334030563274,-0.9032372663704846,0.7848575945058237,1.863037412664302,-6.556033229437927,-0.9454163854211296,0.07422467246096343,-1.5707963267948966
9.088064193725586,-0.5589492704837008,-0.03719587183368284,2.4218949072085567,-0.9154696924644982,-1.1071469913697447,0.7731832503308687,2.0572563047264154,-6.336904356596261,-1.1074329012099682,0.04280874592506567,-1.5707963267948966
9.107967853546143,-0.5768346736558426,-0.06059130731374469,2.437126918018005,-0.8724504004534828,-1.231647809175681,0.7495198642192893,2.2433258250461083,-6.112284579633034,-1.2568279898275898,0.011392819389167919,-1.5707963267948966
9.127848625183105,-0.5856220954996356,-0.07394336234992338,2.44504617599685,-0.8534182754450069,-1.3117156046890925,0.7493742274505802,2.429400237480404,-5.791701132686192,-1.381507141032914,-0.020023107146729835,-1.5707963267948966
9.148047924041748,-0.6021926039929159,-0.10131478934320799,2.4597495866921917,-0.8030407893648586,-1.424368305685974,0.7205870872099487,2.6069380885829525,-5.474065491350493,-1.4954381235095788,-0.05143903368262759,-1.5707963267948966
9.167951822280884,-0.61827434042265,-0.13298149599611395,2.47442809956223,-0.7626409241086172,-1.5848165784024326,0.7031544954438982,2.8448560462437746,-5.139323723064851,-1.5844694754307984,-0.08285496021852534,-1.5707963267948966
9.187894821166992,-0.6329430362839009,-0.16568363639023756,2.4881688048496016,-0.7034827815504209,-1.684299003606201,0.6706488017008844,3.068625213131981,-4.809786569172941,-1.6646428011403087,-0.1142708867544231,-1.5707963267948966
9.207907438278198,-0.6470636522136953,-0.20303478154853882,2.501360210705529,-0.657199619043727,-1.8472157050980296,0.6387740214059007,3.290407825472515,-4.605516101066906,-1.7204433921193556,-0.14568681329032085,-1.5707963267948966
9.227921962738037,-0.6595354992131282,-0.24088638726659245,2.513788234091216,-0.589293771637134,-1.937251163752725,0.6038656720501476,3.497805882906214,-4.397408939482663,-1.7692400999817681,-0.1771027398262186,-1.5707963267948966
9.24797010421753,-0.6714115730859452,-0.28333781967928695,2.525243643477124,-0.5377307553441879,-2.0949445410606,0.5610719418415852,3.6686125637756786,-4.3306326146845455,-1.7949615476285143,-0.20851866636211636,-1.5707963267948966
9.267987489700317,-0.6814216238174909,-0.3260975409196399,2.536104638493244,-0.4627412113464058,-2.1807489649563077,0.5249593017140033,3.8285481327118958,-4.247056556621346,-1.8154414856191121,-0.2399345928980141,-1.5707963267948966
9.287931680679321,-0.6863391011419097,-0.3497583040778807,2.540989146257377,-0.4361321606885989,-2.269273830205811,0.49885836787900784,4.035543821638535,-4.2294599211636354,-1.8208589586572566,-0.27135051943391186,-1.5707963267948966
9.308141231536865,-0.701293113925809,-0.4459540596668867,2.559106068718451,-0.2941970344504469,-2.4872276588063733,0.41884890037660216,3.810498738488262,-4.121521672418207,-1.5494568209392472,-0.3027664459698096,-1.5707963267948966
9.327847480773926,-0.7064291875567327,-0.49651520954185957,2.567190342776548,-0.22010929653893163,-2.5684935913398306,0.39042296725905085,3.6008021768455833,-4.0034067180351025,-1.2961113573295588,-0.33418237250570737,-1.5707963267948966
9.347884893417358,-0.7084524076155463,-0.5234251679276714,2.570627749565687,-0.18589754821603421,-2.6337083129858434,0.36571462728782467,3.253038460217503,-3.5365851471706438,-1.2734609855832262,-0.3655982990416051,-1.5707963267948966
9.36801266670227,-0.7115417980251285,-0.576776172931096,2.577688905792671,-0.12412514622889881,-2.6998789257846423,0.3404795350556641,2.927933469546663,-3.0826042818980652,-1.249899757999049,-0.3970142255775029,-1.5707963267948966
9.38797926902771,-0.7117890530463461,-0.6051001169264694,2.580277868307733,-0.06563909654880526,-2.7516834248914117,0.3062541242025069,3.428050414648082,-1.522526657277796,-1.2637845717337575,-0.42843015211340063,-1.5707963267948966
9.407855987548828,-0.7112477177780472,-0.6907806961407202,2.5880468530848977,0.06688213682296379,-2.859877466708393,0.24363643786379754,3.897615644218606,-0.3178478392641882,-1.260516738121231,-0.4598460786492984,-1.5707963267948966
9.428110837936401,-0.7091009588648399,-0.747965781021377,2.5926678216471384,0.14924522311806895,-2.8548996610669466,0.21847962663180212,4.33306839485287,0.8015947197312079,-1.2547556117431549,-0.49126200518519614,-1.5707963267948966
9.447885036468506,-0.7055900196798081,-0.8099389175891688,2.5948374641284078,0.2228246506434336,-2.9581534051378684,0.14488292045975765,4.306845069274328,2.1261870937228853,-1.2275496473675913,-0.5226779317210939,-1.5707963267948966
9.468638181686401,-0.697861862813241,-0.9022164130535032,2.5975512233300977,0.32998800949253565,-3.0200166559276114,0.07799676625236775,4.711456407760774,2.5386014926844087,-1.1862532839124327,-0.5540938582569916,-1.5707963267948966
9.487849950790405,-0.6902944751043717,-0.9620828745095362,2.598876659939389,0.4279906250434526,-2.965344019901997,0.05468446199717111,5.0834280774610985,2.924252639048943,-1.144983468202354,-0.5855097847928894,-1.5707963267948966
9.507773160934448,-0.6823034498511774,-1.0267812559918803,2.598403624357439,0.488848140897345,-3.0559421151671438,-0.00015615880186745584,5.048255130529936,2.5181280052593906,-1.0923345075314328,-0.6169257113287872,-1.5707963267948966
9.528037786483765,-0.6715193128433325,-1.0874219981600572,2.5981854990716995,0.5894395576954133,-3.009382897346873,-0.021483883216598477,5.010455883137187,2.1428767840585135,-1.0405885667990404,-0.6483416378646849,-1.5707963267948966
9.547993183135986,-0.6720924856882635,-1.0889560507408242,2.5978522120146246,0.5704773448015232,-3.0636537969903843,-0.03176863641278348,5.006724962397807,1.8154529024630406,-0.9904941626199463,-0.6797575644005827,-1.5707963267948966
9.567821502685547,-0.6462136554384721,-1.2109225720294217,2.5949430873418686,0.7463559915606771,-3.010042911657235,-0.0908861668144426,4.765232460909839,1.545522961474897,-0.9305679560861072,-0.7111734909364804,-1.5707963267948966
9.58791971206665,-0.6303489894382205,-1.2708312949331757,2.5929431633236493,0.8393454584237419,-2.981660971551956,-0.10891195097249856,4.535683122706266,1.2960368026608626,-0.8722824543714388,-0.7402496046333567,-1.453805684843812
9.607842922210693,-0.6219010198286415,-1.300038960855832,2.5916904766674143,0.8776604190775238,-2.9546809197933213,-0.11975256286698872,4.165521775053264,0.9509408777839095,-0.8169925428966944,-0.7088336780974585,1.5707963267948966
9.628155708312988,-0.603538318453296,-1.3589639465943666,2.5891356354735304,0.9574466993088309,-2.9388715880026504,-0.13555241048310332,3.816608154265775,0.6347484798477123,-0.7632484504702107,-0.6774177515615607,1.5707963267948966
9.647912979125977,-0.5931434295209324,-1.3869362663233207,2.5879482053222658,1.0123955554849102,-2.8945581925777124,-0.13595412758331693,3.5052954662271683,0.3280631812179941,-0.7148575504240701,-0.646001825025663,1.5707963267948966
9.669814348220825,-0.572214269812038,-1.4447808280651269,2.5850893127819727,1.0795454159998878,-2.890824935257141,-0.14977812028055976,3.212788344475154,0.0499646050408156,-0.6677554943236605,-0.6145858984897652,1.5707963267948966
9.687952518463135,-0.5471061431490143,-1.4991688566348116,2.583221887029848,1.2187319813660271,-2.800842125932857,-0.12835115895173033,3.1041839607575494,0.2117739261625042,-0.6308899228446201,-0.646001825025663,-1.5707963267948966
9.707921504974365,-0.49190492757336324,-1.6072981303790992,2.579487476607382,1.4405634817844677,-2.6988999343268207,-0.10824395850493478,3.070404748254389,0.3793291855684869,-0.6027943556734988,-0.6145858984897652,1.5707963267948966
9.727980613708496,-0.46248199773322324,-1.66118950912942,2.5772039013532315,1.501605706120884,-2.689707097019983,-0.12002060338593179,3.0332678757299503,0.5385850363481568,-0.5749054778578103,-0.5965472710290274,0.9019313730368905
9.748045921325684,-0.46140533120843663,-1.6600107884808588,2.5772579237448086,1.5363047740978202,-2.6489774023018993,-0.11857544105975204,2.970131076401309,0.6576257766241868,-0.5498458721891257,-0.5942938705837757,0.11267002226258427
9.767946243286133,-0.4125387891939405,-1.7377131716364849,2.572939765212004,1.6645540257111529,-2.587694454290364,-0.15029516628914236,2.860401091516538,0.701748278042767,-0.5193279030903329,-0.5628779440478775,1.5707963267948966
9.787879943847656,-0.37811264303901204,-1.788657959028947,2.569414131041075,1.7396381608783424,-2.5494732023216193,-0.17429448611261977,2.781014489954613,0.9788480123525595,-0.48584351388989294,-0.5314620175119797,1.5707963267948966
9.807981014251709,-0.34276892638073214,-1.8394339582924346,2.565833267482287,1.7944717529454246,-2.527254786404813,-0.18368274875781174,2.7024890499379266,1.240434609687723,-0.45310715849032573,-0.5219022274090577,0.4779895051461036
9.828097343444824,-0.30523766610222164,-1.8888104923271307,2.5613562540945924,1.873789948385613,-2.48185062043375,-0.20553041470444586,2.5480654728126657,1.2945922653080328,-0.04430436084901259,-0.5421962894594534,-1.0147031025197872
9.84804391860962,-0.26726227411425646,-1.9381850999758339,2.5572624819571965,1.9232527834850044,-2.4554378824019083,-0.2025875454734856,2.3991238209678794,1.3462714786062877,0.3334840785219491,-0.5178203205492271,1.2187984455113154
9.868015766143799,-0.2473553156485023,-1.962624028812892,2.5549051086379966,1.9628944236303174,-2.4397924634750066,-0.20976313490777665,2.3927637652440796,1.4578963207123197,0.2900480607551572,-0.48640439401332936,1.5707963267948966
9.88780665397644,-0.18676109927107065,-2.0351323251706814,2.548223884624809,2.0519102144705967,-2.3939823353902296,-0.2151363550864817,2.3111028635935305,1.5749079231707233,0.2523362722864049,-0.4549884674774316,1.5707963267948966
9.90801191329956,-0.14526605131652132,-2.082689408539748,2.5439692336590416,2.097326857488606,-2.361350536593399,-0.210446275053067,2.2307859111561825,1.687548391560786,0.21707520805524022,-0.42357254094153385,1.5707963267948966
9.927960634231567,-0.10204898627586761,-2.1293311274978626,2.5395778200715085,2.161501917220294,-2.3203142753714765,-0.21132755141316106,2.162144362415529,1.8107078123563463,0.18575058985609233,-0.3921566144056361,1.5707963267948966
9.94803762435913,-0.05839107306702995,-2.175367351767346,2.5353864394932737,2.204062084739116,-2.2829169710851174,-0.20790770418869436,2.0939491612056695,1.9280636132760312,0.15659035467773605,-0.3636049076435688,1.4275853381033654
9.968047380447388,-0.03588369135599493,-2.1980023994981357,2.533315984718653,2.2351606562169115,-2.259857411309992,-0.20633897808631138,2.1262396888456983,2.070734601452798,0.13009902038512838,-0.33218898110767103,1.5707963267948966
9.987846612930298,0.05545002402249955,-2.2869902438732974,2.5254189927092896,2.3248296080936113,-2.182581046020613,-0.19452866766896365,2.1217590304037297,2.20031503714355,0.10330277221776586,-0.3007730545717733,1.5707963267948966
10.008008480072021,0.10237053631308449,-2.330193553937938,2.521547395017567,2.3671978586820486,-2.1373440095348486,-0.19271367814733853,2.1146317027175012,2.3221029238221407,0.07852891254991205,-0.2764608124643564,1.2156121053708446
10.027963161468506,0.12606984780791386,-2.35167428993126,2.519922810210503,2.385235728477866,-2.119274821154142,-0.1834459507517222,2.0392993895085807,2.4741800140412424,0.054135261033741354,-0.24504488592845863,1.5707963267948966
10.047993183135986,0.17417747727469765,-2.3935553019807454,2.516263190224165,2.425281250149574,-2.0683520403752094,-0.1825908357400408,1.9655087854836426,2.61648639661441,0.0316980511067616,-0.23426246987696642,0.5391208025746108
10.068029165267944,0.19839441563480018,-2.4144504250347656,2.5148071663010576,2.439711828701168,-2.049936124745613,-0.17147742339744504,1.7977307117447847,2.853903883362676,0.06707954194594558,-0.20284654334106866,1.5707963267948966
10.087839603424072,0.2974322935020992,-2.4949414801995373,2.508469534619589,2.5104453445381347,-1.9551695994218363,-0.15725904609654293,1.5968348016454588,2.8447376450791726,0.09697983297227214,-0.1714306168051709,1.5707963267948966
10.107969760894775,0.34794768777573115,-2.5334764788225783,2.5053456414482356,2.540458566338891,-1.898357040299041,-0.1550373528255866,1.4061764117939237,2.8367037762031213,0.12485608269097082,-0.14001469026927316,1.5707963267948966
10.127941846847534,0.37350827517035085,-2.552638216081901,2.50404737612829,2.555441178496502,-1.8781405712914683,-0.1466183726106902,1.1999961247448971,2.901575118821972,0.14742207826272102,-0.1502889253855373,-0.5137117558132065
10.147866487503052,0.4248439305177445,-2.5896166860885765,2.501145914195825,2.5774755009169845,-1.8195100158626074,-0.14345813533081864,1.0053353977321973,2.960501564134452,0.16832833075224332,-0.12126745001280748,1.4510737686364905
10.16796064376831,0.45101698960302183,-2.6078125791205182,2.499910140723388,2.5959149795849603,-1.7931601250640485,-0.13629335116968086,0.8167421582989448,3.057008215221241,0.18500701933430655,-0.08985152347690972,1.5707963267948966
10.188001871109009,0.50308662109406,-2.643058373717846,2.4972223185768017,2.6104565039585403,-1.7311260504648032,-0.13243781497392332,0.6392384780270214,3.14499694758845,0.20032213289331838,-0.06306141413680866,1.3395054670050532
10.208021640777588,0.5562442471341134,-2.677319713817937,2.494820889542317,2.642906508849333,-1.675260290220359,-0.12308681664011019,0.5293564141846093,3.121822579139503,0.21179748442202756,-0.06704658578696021,-0.19925858250757766
10.2279212474823,0.636252848309647,-2.726316739821342,2.491379030617153,2.6715454414207835,-1.5847501656352296,-0.11218762045740416,0.4432068013878244,3.2099146010958384,0.22029202473917103,-0.03563065925106246,1.5707963267948966
10.247980117797852,0.6897668880848209,-2.757364206516583,2.4891798562940517,2.6795868547210313,-1.5197240719241991,-0.10770459354419079,0.36170086713134686,3.291646548715901,0.22785792337190092,-0.004214732715164704,1.5707963267948966
10.267952919006348,0.7168810991034289,-2.772488028515755,2.4882852314817514,2.6915126519868804,-1.4895344251363973,-0.10049727735288076,0.3787369954805472,3.2687740448504177,0.23262760087942522,0.01327842322745143,0.8746577971308067
10.287833452224731,0.8250128882533604,-2.8295468881384656,2.484690939242713,2.7094926098264587,-1.3605860341796747,-0.08523572200240657,0.3384857478382082,3.2598365045810387,0.23405427524118252,0.0256148374378653,0.6168207105206935
10.308026552200317,0.8792678618189638,-2.8561072161948577,2.4830331045008864,2.7158777319859464,-1.2954751665279232,-0.08054474064842403,0.30038061581148645,3.251317476917596,0.2349579932549231,0.04139150378304679,0.7888333172590745
10.327981233596802,0.9063283783807734,-2.868804275228582,2.48238972427794,2.715403544957078,-1.259524581571335,-0.07392895124365198,0.3007190239315924,3.313610542291894,0.2339385052562683,0.03831351695733254,-0.1538993412857126
10.348322868347168,0.9606966029590263,-2.8933281526028387,2.4809578461855217,2.7214191981142535,-1.192672842184342,-0.06926350416406675,0.3008047045457951,3.370706501143785,0.23254485860425012,0.06161098445843072,1.164873375054909
10.36795449256897,0.9877465221053516,-2.9049538824720447,2.480411417356314,2.7202841565822076,-1.1554671561247176,-0.06316442049870831,0.44588576148709475,3.3413108092468584,0.2296097133642478,0.09302691099432847,1.5707963267948966
10.388071537017822,1.0422505351587834,-2.927396825675623,2.479193842602848,2.7305662444438195,-1.0889186779363824,-0.05860367497802504,0.5806185064296742,3.3138557603049534,0.226423830628216,0.12444283753022622,1.5707963267948966
10.40793228149414,1.0963676894364465,-2.948359841812386,2.478254725434216,2.7270728716016035,-1.0185512353777488,-0.04940598467550072,0.7401180607745491,3.3177725938062674,0.2212528825119381,0.15585876406612398,1.5707963267948966
10.427992820739746,1.177794862490649,-2.977276345255282,2.476979016725327,2.7296681822457085,-0.9142224503087011,-0.03985163958362936,0.9001204117404789,3.3904632139780353,0.2145663730493248,0.18727469060202173,1.5707963267948966
10.448053359985352,1.2325782928087388,-2.9948781113066234,2.476224451570783,2.749166715119575,-0.8457288524559731,-0.03562715396246312,1.0476851146995798,3.458055686013332,0.20788300379995514,0.21869061713791949,1.5707963267948966
10.468029260635376,1.259250170383646,-3.0030535333817343,2.4759493205086747,2.735106161943427,-0.8070127783449285,-0.03161262178805526,1.1137530561196376,3.597961983628254,0.20076932298375022,0.25010654367381724,1.5707963267948966
10.488121271133423,1.3141791038932624,-3.0184653982305756,2.475356750245543,2.7579845096099866,-0.7337424917299397,-0.027667945528271606,1.172952309746403,3.7273304402532217,0.1937070593754078,0.281522470209715,1.5707963267948966
10.507903337478638,1.3680409207501378,-3.0325490635011887,2.4749752832779044,2.743957170924658,-0.663005811974046,-0.02040629457669212,1.2223601274436446,3.827125680057201,0.18550173970190992,0.31293839674561275,1.5707963267948966
10.527859926223755,1.4775374979335911,-3.056433452641918,2.4745060041067743,2.7634639268112537,-0.5204904042258564,-0.008023892725825033,1.3080670867511939,3.8372025560004994,0.17518701384184776,0.3443543232815105,1.5707963267948966
10.5480375289917,1.5330736047955733,-3.0660752601355807,2.474379890685824,2.7903993194277232,-0.44366418265502194,-0.004620854824716849,1.3838397586377629,3.8450520349221398,0.16516531782487442,0.37577024981740825,1.5707963267948966
10.567962169647217,1.560436747864608,-3.070528215096885,2.474495913962515,2.787711725794825,-0.41135313181173083,0.003792605972154826,1.467150744868049,3.7952452106792376,0.4594676399789066,0.40325777270086194,1.3743761441726843
10.587890148162842,1.64410256636011,-3.081217180928566,2.474758111649338,2.8122623356334646,-0.2985987622001717,0.01497319978468356,1.2578783826726108,3.8041200894403846,0.415828611485928,0.4346736992367597,1.5707963267948966
10.608013391494751,1.7005859789601558,-3.0864278734880504,2.475137930973927,2.8354173634995328,-0.22244974598531478,0.022869843072190536,1.0594065293123835,3.8103455330500062,0.3741610882029355,0.45019840953145973,0.776235514735002
10.628329753875732,1.7286253972035053,-3.0883776779618612,2.475300327332371,2.8355303437576453,-0.18250471549909328,0.023466342742622635,0.9772128466044343,3.7268795632987803,0.2679485318215067,0.4317798899513421,-0.9209259790058821
10.648059129714966,1.7855259887917476,-3.0912877513522647,2.475816500831936,2.85425630492627,-0.10876692941001398,0.02781941097485566,0.8954605471061982,3.6475861360105797,0.16846704121794517,0.46319581648723984,1.5707963267948966
10.668047666549683,1.8141919854704351,-3.09203461620234,2.47612541936925,2.8639081414884258,-0.06535606070406082,0.02987541381455004,0.6736716222071357,3.9440795437718075,0.15011660720499248,0.4946117430231376,1.5707963267948966
10.687843084335327,1.929833070012879,-3.0915724043222172,2.477491028255368,2.903100429639051,0.09104802275842214,0.036998059637996794,0.4462183062102815,4.16254623777457,0.1315156666102526,0.4635434198313564,-1.5534161595890605
10.707951545715332,1.9879698361246454,-3.0889052645981816,2.4782560973568475,2.9098630263101057,0.1763347378695668,0.039449828284372115,0.23226675855759482,4.363189697778487,0.11380870021913148,0.49495934636725414,1.5707963267948966
10.72789740562439,2.017553145981446,-3.0872639888533016,2.4786989260210794,2.9247143720085247,0.21033344232866355,0.041086351056683866,0.09316752032180031,4.4228619140564565,0.029370060322736993,0.5263752729031523,1.5707963267948966
10.7479989528656,2.0760571632864524,-3.082169117592853,2.479521187638893,2.9252482662751893,0.2993294603029053,0.04087760625308622,-0.03856269996745455,4.475597661286162,-0.049293590775085126,0.5577911994390501,1.5707963267948966
10.768001794815063,2.1356358598583105,-3.0761707971170797,2.4805426225112632,2.9494748589236246,0.3674318822614208,0.04539472417314417,-0.27256351281363633,4.514891953137209,-0.05064761404854242,0.5892071259749478,1.5707963267948966
10.787917613983154,2.194556038023925,-3.067916919196926,2.4814403037654866,2.9418157039633486,0.4580631292091939,0.04436932386503967,-0.49074563523956344,4.547060939430888,-0.05187088062862826,0.6206230525108456,1.5707963267948966
10.807994365692139,2.224680092929343,-3.063561537183436,2.481924185576989,2.957821048189679,0.4909688501894696,0.044145072086651665,-0.47588475223008175,4.549202776958141,-0.12040171314307686,0.6520389790467433,1.5707963267948966
10.827996492385864,2.313983292963476,-3.0470737626752094,2.483165378154682,2.9648796168876665,0.6199466080835874,0.03981629286640349,-0.534410931479759,4.589545578743986,-0.1138762533631876,0.6834549055826411,1.5707963267948966
10.847978115081787,2.3731702513089696,-3.0337545971505526,2.4839393512750334,2.9536310995949466,0.7120801545249724,0.037601938392597664,-0.5899473147847318,4.622611705468466,-0.1076004086172173,0.7148708321185389,1.5707963267948966
10.867953777313232,2.432950057194614,-3.018803598241035,2.484628812255973,2.9613363226441356,0.799780329699982,0.034588519440815105,-0.6413181090058093,4.662489075504342,-0.10144173170863956,0.7462867586544366,1.5707963267948966
10.887746810913086,2.52184727942405,-2.9927988612346197,2.4856396682371154,2.950740815346097,0.9373724245419379,0.03221161524251195,-0.7531343911105179,4.678950958302843,-0.09557045846665758,0.7777026851903344,1.5707963267948966
10.908013105392456,2.5807044067464773,-2.97311487041217,2.486265166096427,2.934625264740328,1.0310585959201741,0.03035695887337353,-0.8571331118827391,4.688535538730772,-0.08993392823127831,0.8091186117262321,1.5707963267948966
10.927935600280762,2.6102503454975032,-2.962617659997698,2.4866035576128707,2.9317436175539235,1.076846867140981,0.030608355028959932,-0.9934451721222549,4.709502752291339,-0.08506775618991368,0.8359982639303407,1.3439826102054298
10.947950839996338,2.6686779407298373,-2.940137798729798,2.487199026162985,2.910594713957637,1.1711842822640877,0.028954094809877533,-1.1198066707136842,4.723012940390342,-0.08038924913660932,0.8520735488169224,0.803764244329086
10.967941999435425,2.7271984374249256,-2.9157930140509505,2.4877773248694255,2.902663184085069,1.2637063638498498,0.02706357175021507,-1.007672749699219,4.541125426163034,-0.1417515962328647,0.8834894753528202,1.5707963267948966
10.987839221954346,2.8140381502313527,-2.8756849372446824,2.488527881273812,2.8764951081941637,1.4043600735666761,0.023003511150825266,-1.175418218032269,4.483948881508237,-0.13027393799709927,0.9149054018887179,1.5707963267948966
11.008039236068726,2.8713223843492135,-2.846704874744187,2.4889626357621575,2.8514089304526533,1.4934478285659416,0.020508459764318653,-1.3312348457704515,4.424445912787201,-0.11931713961242446,0.9463213284246157,1.5707963267948966
11.027898073196411,2.8998589780343527,-2.831277728153138,2.4891352362099526,2.840748569853656,1.5439391433258374,0.018575936415252865,-1.3112265387151283,4.228811891740658,-0.1091592018044914,0.9777372549605134,1.5707963267948966
11.048007249832153,2.956412818394738,-2.799565862802303,2.4894855765694914,2.8146875824713993,1.6266193799272004,0.01649038217133961,-1.2955893847042133,4.040406301530841,-0.0994742515382961,0.9960092376809051,0.913599136019605
11.067986488342285,2.9846192227191004,-2.7826518030759435,2.4895789021005177,2.8044292803011275,1.6788008540275525,0.013064132012655858,-1.3546363234637937,3.8975072166245495,-0.15539314654668634,1.0274251642168029,1.5707963267948966
11.087867975234985,3.0956860120595953,-2.711339591852514,2.4898806592233655,2.7499290300759514,1.8588686562346695,0.006159446565398344,-1.2728939849583867,3.7052733749709628,0.048724166981427675,1.0588410907527006,1.5707963267948966
11.108025789260864,3.150434972464534,-2.6734335713408894,2.4900263977925476,2.7252068842056585,1.9311197632195791,0.00904144280878833,-1.200927339727683,3.521181258708105,0.23684023395609327,1.0902570172885984,1.5707963267948966
11.127882957458496,3.1774559301204737,-2.6533295534769863,2.489916111974863,2.7100414999666445,1.98254920711136,0.004345650513277621,-0.9463343090466099,3.3534214427534996,0.14926135597047174,1.1216729438244961,1.5707963267948966
11.147995471954346,3.2314832425517257,-2.613018663097358,2.490027327971094,2.6934571097306077,2.0480076142295265,0.00650324333195327,-0.7161137245756529,3.193753587920833,0.06744734402823281,1.1444524407362575,1.1389748455880477
11.168013095855713,3.284322223276671,-2.570222884084267,2.489695494441988,2.6577576403244274,2.1397250900037452,-0.0037872238233452983,-0.42173337749130774,2.957354546258688,-0.001034068710100527,1.1758683672721553,1.5707963267948966
11.18782353401184,3.3628419350808008,-2.5039370193177373,2.4894357405086645,2.6152744017051828,2.251040984675095,-0.007865945753884438,-0.4424366611849652,3.074020274658831,0.0036568069267520625,1.207284293808053,1.5707963267948966
11.208193302154541,3.415057431066236,-2.4582943275628084,2.4892794494806307,2.6061979322282975,2.313569937875818,-0.007748597184915685,-0.4656143820760905,3.1765506996908504,0.00802489487213153,1.2387002203439508,1.5707963267948966
11.231612205505371,3.4670866021418516,-2.4113814740895125,2.4891263579080958,2.5966339950243182,2.3780113003607024,-0.0075470504488953545,-0.4911668126403068,3.265324279418866,0.01207790933308438,1.2543025558252925,0.7801167740670856
11.248724699020386,3.4656818069465327,-2.410787877136115,2.488943790902596,2.5618521881121032,2.3920221510378386,-0.011755919434661793,-0.5746621213775283,3.326129808038144,0.016530795648722566,1.2857184823611902,1.5707963267948966
11.268128395080566,3.5167984606614624,-2.3622787666641325,2.4887122589210606,2.549542107757092,2.4590509289314495,-0.01138353942404436,-0.6559850480099467,3.3747454651876816,0.020652718904332516,1.316206076321457,1.5243796980133562
11.287930488586426,3.5921078791110252,-2.287459273129871,2.4883245055489476,2.5119194499616078,2.5475073606740497,-0.01208272205903326,-0.73976533459566,3.2593646127340374,-0.04103112212697198,1.3476220028573547,1.5707963267948966
11.308043479919434,3.6421927962003235,-2.2358649856635435,2.4880707567827094,2.496297431142794,2.611534120013297,-0.013482874452431999,-0.8222134721636981,3.1431864282649693,-0.09824891649346609,1.3790379293932524,1.5707963267948966
11.328018188476562,3.667064744825358,-2.209868076503034,2.4880215145390374,2.489708109948204,2.634111808090009,-0.012159980490287393,-0.4762102518349203,2.9910546116241092,-0.1479446129260296,1.4104538559291502,1.5707963267948966
11.347901821136475,3.74137404299533,-2.1294942884973853,2.4877570352864793,2.471702086590064,2.7234882989092006,-0.01226290658576656,-0.23262782692867318,2.8893951172783483,-0.1926120155965992,1.441869782465048,1.5707963267948966
11.368077039718628,3.790776312172792,-2.074453415244345,2.4874704605753695,2.4692380949048385,2.7802605602842156,-0.016531255705408792,-0.018635136912704207,2.7878563209402087,-0.23362092517000332,1.4732857090009457,1.5707963267948966
11.387961626052856,3.8149225049386453,-2.0464455447394823,2.4873876991004336,2.4528038719071588,2.8073972695260725,-0.016640402855006814,-0.03571804186258892,2.4697742984313154,-0.268562696843407,1.5047016355368434,1.5707963267948966
11.407912015914917,3.8876839764527413,-1.9608479277158688,2.4868413806587695,2.429730742424713,2.8861107247822244,-0.022905672350730644,0.046937002090111056,2.063485030117258,-0.29841082975499583,1.5361175620727412,1.5707963267948966
11.427918910980225,3.936292639771396,-1.9027389452398658,2.4863217412661274,2.4313547207161554,2.923510122885681,-0.029148056937828307,0.11268474499524853,1.6802567436953142,-0.3253491320498941,1.567533488608639,1.5707963267948966
11.447864532470703,3.984018577012269,-1.8431086416584712,2.4857192784495514,2.4120529911864415,2.9770685949707456,-0.034875569030493186,0.19801344742013838,1.4084143521376438,-0.3464694108006956,1.5989494151445367,1.5707963267948966
11.467980146408081,4.032304015627848,-1.7833029065045625,2.484951187906387,2.416714717597597,3.002652164379208,-0.041995735027699224,0.2651766177924282,1.1525817049651255,-0.36514546219923427,1.6303653416804345,1.5707963267948966
11.4879891872406,4.056091115746086,-1.752356876866152,2.484483667198496,2.4086387544379577,3.037360031766829,-0.04670065727801653,0.28521693382849256,0.9952770388495116,-0.37928455506885717,1.6617812682163322,1.5707963267948966
11.507843732833862,4.152211307029875,-1.6286716445827227,2.4822552979257906,2.408869333190804,3.1096477069408777,-0.063349982330593,0.24397188664315497,0.8762768356366192,-0.38781132649649064,1.69319719475223,1.5707963267948966
11.528038501739502,4.200434207158389,-1.5663110480905658,2.4809102541618726,2.413247951181631,3.1260365704509656,-0.07117706735148517,0.19215950619343447,0.7636631277730384,-0.39461417804462023,1.7246131212881277,1.5707963267948966
11.547938823699951,4.224418982168399,-1.5345254483955106,2.4801669578599124,2.410088559462133,3.1458905330888776,-0.07541139288201301,0.09077494309221402,0.6398048915717324,-0.3985631360385511,1.7560290478240255,1.5707963267948966
11.567986726760864,4.2726318640201955,-1.471487578363852,2.4785788272020017,2.4108427664775434,3.157507250016512,-0.0834099846205656,-0.01627876151206985,0.523036482025601,-0.40105741408236667,1.7692395653128408,0.6605258744407649
11.587943315505981,4.296785691048059,-1.4395470274913325,2.4777579759207065,2.411144262553767,3.1729940470316804,-0.08641319945098441,-0.16083149897641558,0.6485798029850491,-0.4015896702447143,1.8006554918487385,1.5707963267948966
11.607898950576782,4.369374946841952,-1.3439277662049252,2.475038855307774,2.4140934256295448,3.1970920670887306,-0.0969101866386328,-0.4024308464424108,0.8316347537731885,-0.3994272428088401,1.8320714183846363,1.5707963267948966
11.627874374389648,4.417560354480884,-1.2798082699274678,2.4730209641716727,2.4036508284535483,3.215409576334412,-0.10486814385518936,-0.6413828259985498,0.997247055577881,-0.39619292719234833,1.8621745895317012,1.5051585573532478
11.647924184799194,4.466393545688914,-1.2158003658931635,2.470947383509855,2.41104128437934,3.219450916811675,-0.11009675177818916,-1.0388127424119564,0.8106965551294663,-0.39125591825687767,1.893590516067599,1.5707963267948966
11.668673992156982,4.514381017605714,-1.1512611386373472,2.468667570842872,2.3864412529903087,3.2338836304630023,-0.11786511216249265,-1.4182148538598307,0.6342395634392165,-0.38543563668604774,1.905178392902597,0.57939384174992
11.687912225723267,4.539189080911745,-1.1194455070957545,2.467555309696542,2.4009634875135992,3.2236934813050344,-0.11865180381522787,-1.5048335260725092,0.5155146735715365,-0.308953609774961,1.9365943194384947,1.5707963267948966
11.707854270935059,4.611938722224752,-1.0227128709376752,2.4638940698047267,2.3944822116462974,3.2331684232012337,-0.12612855805850753,-1.6103861304713754,0.472651024888792,-0.19989939265900056,1.9632916278459334,1.3348654203719557
11.727872610092163,4.659499149749399,-0.9579578328865296,2.4613384318860096,2.361201916654888,3.24219231569597,-0.12909545940900177,-1.7179711963212594,0.429731712769258,-0.09796451451123822,1.974486568938774,0.5597470546420347
11.747988224029541,4.708057123841573,-0.8931859712944223,2.458676147753469,2.365127087002622,3.2463767168805053,-0.1323932299763294,-2.0195192453520345,0.3571656815473294,-0.045097841604180976,2.0052407383269877,1.5377084694107035
11.768053770065308,4.754936380501965,-0.8281916944184824,2.4560226211312868,2.321841418888096,3.2528188746804,-0.1327943012559923,-2.3066720238007465,0.28753620832413535,0.004442727010897565,2.0123748962879953,0.35670789805037906
11.78789758682251,4.778952899244502,-0.7957472620288442,2.4546478324530487,2.3234914077570648,3.252502949804339,-0.13356447454356146,-2.451376469851188,0.2565497142589383,0.04829443764050947,2.043790822823893,1.5707963267948966
11.807859659194946,4.871539490195374,-0.6656387724106655,2.4493378112453996,2.263870522471674,3.2577133716925153,-0.13107778342512197,-2.564975209311435,0.29496572684255257,0.08844731777464247,2.064828557206563,1.051886719133499
11.827953338623047,4.916296271336928,-0.6004232674953571,2.446736482528325,2.211424915959926,3.2639441392838253,-0.1289305062076399,-2.679775963646856,0.3270744944253072,0.12582303918916615,2.078066917871972,0.6619180332704699
11.847959756851196,4.939086498157893,-0.5680390490095182,2.4455430050549043,2.2079517096910712,3.2596126632769553,-0.12474406254738694,-2.601610581985077,0.3717024359742092,0.15755728574583336,2.0972019314420702,0.9567506785048918
11.868498802185059,4.982729684374856,-0.5027698751735946,2.4430816316518618,2.1565785403115463,3.2674272457092086,-0.12129541853830295,-2.538114790681273,0.40846388629732017,0.1869160152213844,2.111188381535662,0.699322504679567
11.887943029403687,5.004741992868213,-0.47046167462625815,2.441969372675275,2.1469028386238134,3.260964800056574,-0.11658323843052436,-2.512377468198303,0.4806915196387554,0.2113808572457384,2.130410552616964,0.9611085540651043
11.907847166061401,5.068137336427452,-0.37289140139171456,2.4386270192321335,2.074584322705151,3.2619868424693075,-0.10839410743307827,-2.4744196784559405,0.5118208631883564,0.2322000830885721,2.1557737905613195,1.2681618972177677
11.928112268447876,5.109136111935714,-0.30754757516361725,2.4365068730184145,2.0253827423406032,3.2724763025712016,-0.10355723023827883,-2.4475597646656846,0.5359810118955851,0.2511859715191195,2.163847712141669,0.4036960790174682
11.947994232177734,5.1291058682030135,-0.2752642004716797,2.435526873296959,1.9949981482000043,3.2655341238544144,-0.09972485818086103,-2.559722241194816,0.6584544103011641,0.2666356229515776,2.186366792249796,1.12595400540636
11.968019723892212,5.206534616537151,-0.1449024291904489,2.4317872067996986,1.8840206355585336,3.27272900508091,-0.0879561679055212,-2.660527565172835,0.7270192846596282,0.2785644390229181,2.2089823965043447,1.1307802127274336
11.98793625831604,5.243676182843686,-0.07929838618340437,2.430084522819926,1.8297986445497363,3.287869848617489,-0.08227703449835928,-2.7617314214493653,0.7853899692134865,0.28912372704563344,2.2186277726386665,0.48226880671609074
12.007861137390137,5.26172072331169,-0.046871633887605665,2.4293553696600396,1.797151544647886,3.283491719313464,-0.07519159729428265,-2.9980751953238474,0.9984642524111279,0.5154151101217116,2.2299131025034047,0.5642664932369312
12.028035402297974,5.297048882181722,0.0190107828403657,2.427968740739915,1.734909730037171,3.3053728391519477,-0.06278117477478792,-3.224461923865516,1.1853420293515804,0.7224590574545501,2.249387049229499,0.9736973363047463
12.047981262207031,5.314383212229257,0.051508158923840475,2.4273316824314763,1.7052934119400145,3.3011703931110588,-0.05803882881604084,-3.4446302858280493,1.3934663372173255,0.6016938317179278,2.253901668869772,0.22573098201363884
12.067841529846191,5.380533746566872,0.18329890439358085,2.425403092599691,1.5854473314965876,3.321698833281441,-0.035243981958982096,-3.341745704949687,1.2697279073369663,0.5684814197783029,2.2853175954056697,1.5707963267948966
12.087931156158447,5.411580625812189,0.24997857300556323,2.424809742764412,1.5195452054699568,3.3458553082614606,-0.024198536363644125,-3.250356758855959,1.145913290223849,0.5362207843730873,2.288766649020757,0.1724526807543647
12.10788345336914,5.426776596159336,0.2828669711552563,2.4246939178392237,1.490069441371025,3.341321442765277,-0.016946304305645674,-3.366892912447775,1.291575354521279,0.423863277260321,2.3041173070596734,0.7675329019458221
12.127983808517456,5.455897017702027,0.34996023743511523,2.4244326175098436,1.421596261240949,3.3684118113552,-0.009535419865748664,-3.47982923000038,1.4135745695561048,0.3183532795046537,2.3185141172884123,0.7198405114369644
12.148152828216553,5.4835145451410074,0.41712210154913915,2.4245675230564436,1.3506555530053386,3.3849066951059834,0.005475628563626793,-3.3135713929219346,1.475622981027284,0.531206989585676,2.3337453889949673,0.7615635853277514
12.167919635772705,5.496859320142125,0.4509643229025567,2.4247039973358677,1.3195431417170418,3.3963368551315445,0.014379724379404976,-3.075631577566759,1.4538658584242978,0.7007383140915617,2.335236576486393,0.07455937457130357
12.187885761260986,5.534683271420351,0.5531945527602494,2.4253000199945185,1.2171469060781228,3.4310762251810187,0.02963016351594993,-2.911161510941847,1.4306759155910456,0.5601014542171064,2.363316048723486,1.4039736118546475
12.207971334457397,5.558454113888964,0.6221001736732292,2.4259956887428222,1.1604305753808077,3.459375870716961,0.03949589854889467,-2.763183841691043,1.397682920489948,0.4278544414676087,2.365562929492768,0.11234403846411833
12.227893352508545,5.56928038555,0.6565872047858621,2.4263402440117994,1.112592155794479,3.4693462027224653,0.042876993785381595,-2.968825740572466,1.4952408005758593,0.5426019900445608,2.380024718402246,0.7230894454739012
12.247923851013184,5.590925157614411,0.7262786291373906,2.42731341713937,1.0512264250983232,3.500051595014606,0.0547871343714843,-3.166415432636363,1.5718598153596588,0.6466510170816631,2.3939463791713784,0.6960830384566075
12.267897605895996,5.610468627304635,0.7963947673171268,2.4284440084102066,0.9677124708694673,3.5256562421199016,0.06388078391328395,-3.289835878480816,1.4983931775566348,0.5837063190697491,2.4110962942750227,0.8574957551822138
12.287837743759155,5.646499484864763,0.9385207249827731,2.431349790309158,0.8346884074576986,3.5828204474968914,0.0845346828420622,-3.4257307377383506,1.3859786253182307,0.5212795379553832,2.437959126349412,1.3431416037194888
12.308112144470215,5.662499382625616,1.0104465586146194,2.4331407224195503,0.764870686695099,3.609369860598065,0.0943600348642886,-3.554937483609088,1.2680660366762437,0.4617305965965805,2.4416921045752513,0.18664891129198669
12.32797384262085,5.670141183506268,1.0467213925069596,2.434160667680952,0.7337624794007394,3.6244226810994697,0.09947664418754852,-3.634260883301442,1.1072635312015755,0.3275785856615572,2.4549665581427895,0.6637226783769101
12.347942590713501,5.684084503319761,1.11942049308247,2.436207193557196,0.6603190955201,3.6449457284281763,0.10475672975304537,-3.7093841444316036,0.9447715016372559,0.20181124659221625,2.46958494215617,0.7309192006690335
12.367937088012695,5.690831482223571,1.1563244088055125,2.437434582186124,0.6316903385120928,3.664825906014259,0.11136646836936105,-3.808899696660769,0.7666222307540282,0.16970306108452948,2.477250970250915,0.3833014047372352
12.387822389602661,5.708407753610357,1.2672848280624347,2.441067640622522,0.5251756857590183,3.70445524238064,0.12143258094857783,-4.035522935223128,0.4359468564181562,0.05942245870419285,2.445835043715017,-1.5707963267948966
12.407947540283203,5.7180898620094265,1.341439774942792,2.443501193442482,0.44233340340548133,3.7099835938093415,0.12157960175772788,-4.246054364515634,0.11918723376907446,-0.04351022892180181,2.477250970250915,1.5707963267948966
12.427895784378052,5.726743892977491,1.4169641088516722,2.4460983493893256,0.37349171072315573,3.7436491752484202,0.12395714890228048,-4.414749712721387,-0.1714488782741759,-0.13296385766601382,2.445835043715017,-1.5707963267948966
12.447922468185425,5.733320227182277,1.49178404652327,2.448545255791613,0.28362565608146756,3.737417018814537,0.12045655915406576,-4.569571399962103,-0.4497243447603003,-0.2160460825759951,2.4635631670144758,0.8864061649729083
12.467941045761108,5.736593073640516,1.5302678300762718,2.449858002633141,0.2565288824926129,3.763520948833894,0.12107433744851794,-4.624914924678293,-0.658950127852007,-0.2874068216042971,2.4910496181152215,1.3743225550372662
12.487809658050537,5.742973123640059,1.64421787181617,2.453570255614391,0.1398738365724859,3.780311651041153,0.11853446183910767,-4.558225032757499,-0.8387497749539435,-0.27605784787795656,2.5218553781385555,1.5402880011666786
12.507995843887329,5.744863294066696,1.7196445779550626,2.4558864730107444,0.04935837190875923,3.7617736004339895,0.11312398557185929,-4.493674606593715,-1.0143589073256802,-0.2650454262517881,2.522610208061457,0.03774149614508282
12.527903079986572,5.745715019683341,1.7963647681986645,2.458102747930804,-0.02230266512877997,3.7803759266102452,0.10679367847442957,-4.450381421451899,-1.3226978955885313,-0.2541890065835574,2.5520105109091205,1.4700151423831853
12.548250198364258,5.744381815638816,1.8716879033899465,2.4601884907385756,-0.11087082754218368,3.7509571543371254,0.1018156781000251,-4.406308637080737,-1.6168336555454443,-0.24366617694689574,2.554381267175456,0.11853781331678803
12.567920207977295,5.743182846448419,1.9101133608583714,2.4609887707317717,-0.15159111586549429,3.760544540825023,0.09352915104394487,-4.387869375557796,-1.9256092804701401,-0.2324151092482598,2.5661038050461027,0.5861268935323238
12.58787989616394,5.733393803748813,2.060866534865686,2.4642787792725405,-0.33306500894814484,3.727801245297089,0.07817847610135324,-4.394440159150474,-2.1521114655764677,-0.21933622383132634,2.596528009296943,1.5212102125420346
12.607936143875122,5.725853361279004,2.134977610032034,2.465799327411359,-0.420988935361577,3.6825893414910293,0.07391820106291866,-4.397351071322389,-2.367194109921928,-0.20677707325017985,2.598546061787477,0.10090262452668863
12.627920150756836,5.721212850564391,2.172656597903014,2.4664768865850553,-0.47110300693438134,3.683585626086921,0.07066801011664733,-4.4140569333512705,-2.684849833890776,-0.19497893092862162,2.607890778071855,0.4672358142189248
12.647907018661499,5.710907096936381,2.2457711171214707,2.467852013646552,-0.5595126599359266,3.6268708341462186,0.0668824342816449,-4.426150288801473,-2.983495157028224,-0.18365730251612641,2.6252083060441276,0.8658763986136186
12.668002128601074,5.704914985062358,2.28290479381194,2.46850936473907,-0.6085884041301419,3.6232524039090586,0.06513008864935432,-4.409827930143243,-3.271519783099279,-0.1733311959533068,2.6279096055698936,0.1350649762883016
12.687861442565918,5.684505698859881,2.3912628600381245,2.470405058012512,-0.7453276597686606,3.5553593229837412,0.060665006032657384,-4.354100849250042,-3.484419334327632,-0.163418982691195,2.6593255321057914,1.5707963267948966
12.707977056503296,5.6687320469735605,2.4616596416036804,2.4715863148879884,-0.8318513616166437,3.4836538529857526,0.05749237501938613,-4.298251120489092,-3.683918327901631,-0.15391079996766616,2.6679412424062665,0.4307855150237794
12.728142976760864,5.650817033231682,2.5319253963018635,2.4727854022373514,-0.927978776622642,3.4410713240021695,0.0565728097134566,-4.19262305611961,-3.846276177306949,-0.14554172970609772,2.697345714561618,1.4702236077675845
12.747924089431763,5.631425847621586,2.599967299409607,2.473888291330782,-1.0107961686037148,3.3626147291301414,0.05374288664801045,-4.089537910937445,-3.997557530581592,-0.13750551694665092,2.7011548757599826,0.1904580599182415
12.76795220375061,5.610800909635741,2.6640263706540317,2.474976238835695,-1.1056920639726242,3.3070297818835224,0.05342915674310045,-4.019703115847231,-4.156261307549833,-0.13056235830650612,2.7325708022958803,1.5707963267948966
12.787775993347168,5.58756600731217,2.7295602199652333,2.476044253425761,-1.1960008266968207,3.2298673955713406,0.05170888571295173,-3.935397051091652,-4.335259547275428,-0.12416184538943616,2.7515622472486125,0.9495722476365875
12.807957887649536,5.562864484025951,2.7932792652336014,2.4770540134793273,-1.2738736708755822,3.141485827803775,0.049287657267019974,-3.8520479549454896,-4.500655679346199,-0.11800048353970506,2.7632121407933745,0.5824946772381212
12.82801866531372,5.549385747838119,2.824767502697103,2.477579661775811,-1.3270107462446912,3.1034633745543645,0.049278653108606824,-3.7433426769073543,-4.6391962894941665,-0.1126505109168989,2.784820299228949,1.0804079217787255
12.847927808761597,5.522103980231538,2.8859002866394636,2.478543051886254,-1.4008123981455218,3.00939254360957,0.04707755849363801,-3.637257448631853,-4.765943576148932,-0.10749028563203086,2.794967829436793,0.5073765103921879
12.868024826049805,5.492459165481479,2.945554103198716,2.479538315220773,-1.4951983411247318,2.923972860331862,0.04687956400950077,-3.528418393076095,-4.772075826819159,-0.10309796723519386,2.8263837559726905,1.5707963267948966
12.887839078903198,5.44542899701062,3.0311827815859043,2.4809415110725395,-1.6167900443433547,2.7822768845505736,0.044999547561095025,-3.4145535876932462,-4.71944326026606,-0.09903600222187317,2.8577996825085883,1.5707963267948966
12.908034801483154,5.412417724425073,3.0858878288756433,2.481821959344557,-1.6839677834099709,2.6883959458242854,0.043058402061760336,-3.3037238914683282,-4.669011688765246,-0.09509924109512143,2.870337296882286,0.6268807186848857
12.928074598312378,5.377274019060223,3.1382907041497043,2.4826427821156543,-1.7690098800986773,2.5839775617082763,0.040336929188627496,-3.1821689281894225,-4.54909030188876,-0.0911193589031843,2.9017532234181838,1.5707963267948966
12.948124647140503,5.341265346127802,3.189068039764721,2.483431555633585,-1.831461904701515,2.494129680201707,0.03855325528543333,-3.0635161855649975,-4.436982688164074,-0.08726951704639223,2.9150808058287137,0.6663791205264724
12.968256711959839,5.322315495201734,3.2131654290918528,2.4837092558991793,-1.8746244115152007,2.432847055625963,0.03461017060573444,-2.939147971157263,-4.28145578982563,-0.0829332334408812,2.945425039994449,1.5172117082867587
12.98885703086853,5.284243276512324,3.2609758669403144,2.484385153516875,-1.932195682416935,2.3486765906712104,0.03299349799481055,-2.818614763938337,-4.137492211708095,-0.07876113232172512,2.9506609736323837,0.2617966818967421
13.008336782455444,5.2483010057602675,3.3012248274986087,2.4847181337844226,-1.9991198168578943,2.237646278740717,0.02505184667885614,-2.611313963953273,-4.268673773181371,-0.0731775502359295,2.9820769001682814,1.5707963267948966
13.02959394454956,5.186661395436913,3.3655035392683827,2.485209344693557,-2.089112756688855,2.08466297096872,0.01635726703192542,-2.320466480010831,-4.146633007188146,-0.06613539550164715,3.013492826704179,1.5707963267948966
13.050377607345581,5.144433669674634,3.406375204899808,2.485523714394118,-2.1327413316518062,2.0028836108020323,0.01510197792563699,-2.0449150525317807,-4.0326238698115,-0.05945279606585473,3.0397370366694503,1.3122104982635774
13.068226337432861,5.122466886027625,3.42541932802292,2.485453556378298,-2.166515700955558,1.9416366002079093,0.008368247120097786,-1.7865373057595477,-3.8691515854497,-0.051884034441250976,3.0083211101335525,-1.5707963267948966
13.09010124206543,5.078795713184585,3.463488513979429,2.4856110282010166,-2.199791936595417,1.8657861232298754,0.0074027754991595265,-1.5436376161801495,-3.7179080043201895,-0.04473177657135891,3.0386599571551622,1.5169423510804858
13.110756874084473,4.987072269119796,3.53253389585353,2.4851268565147255,-2.3091242818732858,1.667079142366488,-0.010113398585745679,-1.3466800535306638,-3.44818952198812,-0.03400634798605169,3.0432587276186736,0.22993852317556573
13.12806248664856,4.96377704034128,3.548834345757019,2.4849752686783333,-2.3263845401327408,1.6258178354430626,-0.009214261612960937,-1.1436645611034888,-3.3201118678028405,0.3951454855274202,3.03224736273984,-0.5505682439416626
13.148100852966309,4.917033465323683,3.5806948227338355,2.4848969026870686,-2.3473418088301927,1.5606304915472067,0.00269388495064728,-0.9543134751972934,-3.19991965357757,0.7900259614972577,3.055055179524219,1.14039083921893
13.168065547943115,4.8928092556025,3.5950307865968427,2.484376408915196,-2.3760795916752735,1.4958776427094398,-0.007295129384251975,-0.8932813005735983,-3.3365586328657666,0.7161782890654926,3.0864711060601167,1.5707963267948966
13.187901735305786,4.820490698863545,3.6373522073132216,2.483649815661878,-2.417467473117502,1.363237532513809,-0.00898961691288718,-0.5308893108016505,-3.7228437778835253,0.6503675170477977,3.1178870325960144,1.5707963267948966
13.207910537719727,4.772058079203809,3.6638481709251294,2.483595858850347,-2.4246697075244543,1.2851731406949791,0.0033844999237590146,-0.19344415523470146,-4.078562466927002,0.5875357892544131,-3.133882348047674,1.5707963267948966
13.228837966918945,4.722611270444937,3.688252350120537,2.4832448414115156,-2.4522851829944856,1.1963549094533175,0.0027743391470560616,-0.19542559479451085,-3.9542812803184475,0.5318809011559057,-3.129294070994662,0.2294138526506062
13.24798059463501,4.673526268789891,3.7113965453283835,2.483403121650692,-2.456226948085044,1.118456815069149,0.012876651984213613,-0.19901438261987514,-3.83661743657358,0.478770227013769,-3.1102947927955245,0.9499639099568746
13.2680823802948,4.648383507616483,3.7227260899159553,2.4835722187187543,-2.469390981528038,1.0923029816972405,0.018161187224667353,0.3408264977155889,-3.5004717497615756,0.43019260838860346,3.1414745878481636,-1.5707963267948966
13.287858009338379,4.573897453373826,3.753787526003503,2.4845011120611207,-2.473190853067955,0.9813285164101824,0.036086250264127505,0.6367413614072285,-3.633077359688582,0.381854282423068,3.110058661312266,-1.5707963267948966
13.307977676391602,4.524579422720701,3.772679439384315,2.4852961029926663,-2.4577114996189247,0.9074738678695371,0.04325953465799352,0.9069658718956611,-3.7497705202842453,0.33586101581736477,3.1311742347972293,1.0557786742481756
13.328358888626099,4.49943402549291,3.78128723852265,2.485765511550055,-2.463456124921852,0.8613363383562339,0.04624736974892744,1.2223501013408455,-3.8615421378888715,0.29420015481266204,3.0997583082613316,-1.5707963267948966
13.34792685508728,4.40060914840792,3.8126668305848415,2.487841925433715,-2.442131465265892,0.708051289746126,0.05812506581341492,1.624374796371517,-3.842177705876816,0.2532856798608542,3.109218924026841,0.47303078827549694
13.368074178695679,4.352116451299285,3.826061060861547,2.4890524619374075,-2.40591405731666,0.6314594536172697,0.06279922804473649,1.9916456767451685,-3.8158667108799325,0.2144779896215428,3.1170699933022625,0.3925534637710948
13.387804746627808,4.327493952778629,3.8323661999057967,2.4898771581401316,-2.4006883077311674,0.6008535817082372,0.07026966372191028,2.4899593089834005,-3.552660075859369,0.17808745630407866,3.0939684643394703,-1.1550764481396358
13.407965898513794,4.280009321741476,3.8436897362165845,2.4913158410051253,-2.3462517935385048,0.5323408050829554,0.07348384394587146,2.946876862408117,-3.3004299514166444,0.14365310924985916,3.1114410379604713,0.8736286810500316
13.427966833114624,4.231997711998746,3.8536969773609804,2.49329928610303,-2.327314019713463,0.46711850769247226,0.08833830527123818,3.278184556384797,-3.0795035918210227,0.1090821919035057,3.0951179204458787,-0.8161558757296294
13.447993278503418,4.162453120344202,3.8659206105024175,2.4962973443606655,-2.2618398429896396,0.3639988267250436,0.0997818758497737,3.3924426952454527,-2.9235230282961564,0.07441976300395399,3.1092062115272423,0.7044145540681557
13.468078374862671,4.117901536353853,3.8726260313667655,2.498305657304769,-2.1929970008035027,0.3070465788376572,0.1009406763540127,3.4889171890892654,-2.7725260240144753,0.041796345600385504,3.1106402645124636,0.07170264926106285
13.48783802986145,4.095369024102393,3.8750578882243922,2.4995724201222678,-2.17823511631514,0.2674382688800361,0.10826037536734374,3.607868789302612,-2.4871295788174748,0.010998770189469598,3.0962221378931662,-0.7209063309648434
13.507904529571533,4.052532955375434,3.879927499915155,2.5017378701585233,-2.1050330574987317,0.2204240904318134,0.10818834602504947,3.70948605810965,-2.2167671512397757,-0.017886622873108545,3.1041278398498235,0.395285097832887
13.528156518936157,4.010664507216281,3.8827989630979407,2.5042660044015705,-2.040617730542647,0.14699389637179378,0.11673878655398717,3.8734525167292464,-2.3621995277754246,-0.045940426247446375,3.0997962083294626,-0.21658157601804895
13.547853946685791,3.951168024464858,3.8856245190338767,2.5079796809078987,-1.9255964082140202,0.06587087419421861,0.12181921840903417,3.75934711941366,-1.9225324747048873,-0.07335231333414644,3.1188472749373988,0.9525533303968103
13.567969560623169,3.9134001962014193,3.886585616687632,2.5103996607987407,-1.8515775354921125,0.03162968928520708,0.1200936071506498,3.642014325100405,-1.5052856252145002,-0.09890209783785585,3.1271157482632583,0.413423666292978
13.587798118591309,3.8953558741570586,3.8864117358498205,2.511829127682599,-1.804924751015621,0.00689530143161985,0.12542287732227858,3.805765671892296,-1.2133653655791594,-0.12283353285559206,3.1363490759120403,0.4616663824390965
13.607917547225952,3.860028399153336,3.886325688376276,2.5143115102517832,-1.7273466491099148,-0.014576292223761247,0.12274139946283545,3.9486048913719625,-0.9362333205051735,-0.14502826541075836,3.1410129383611434,0.23319312245515533
13.628217935562134,3.8434515096646282,3.885212206004301,2.515692087743851,-1.6732387454891489,-0.04904536962034647,0.12552740452572653,4.0035345865153245,-0.7949421614043909,-0.1653081818433029,3.1354617683338013,-0.27755850136710336
13.647831439971924,3.780261888395919,3.881035370259359,2.520772734472776,-1.5006316450594601,-0.11577343494163292,0.12344899234006958,3.855300703894424,-0.40145016143794376,-0.1843063206920554,-3.1358322038462356,0.5945667499774654
13.66795802116394,3.751010345465514,3.8786647688054403,2.52320366438444,-1.4250225673168326,-0.12004656342342013,0.11958584534639188,3.7053268597394964,-0.029398545698243655,-0.20175300511236421,3.121881352075241,-1.273587562905476
13.687869787216187,3.7375096891597415,3.8766580964236104,2.524465962367624,-1.3710287202107052,-0.14167538486491496,0.11941666890838165,3.748775183197985,0.14325500211956937,-0.21701198692993814,3.103319631425591,-0.9280860324825113
13.707930326461792,3.710841094144269,3.8738641051050453,2.5268099453928956,-1.2957305955352902,-0.13719108180821715,0.11493537476469828,3.778837100322093,0.30305973769327743,-0.2308902279471241,3.0729949351368635,-1.516234814436368
13.72823452949524,3.686869229107835,3.8697471560867744,2.5289580818581725,-1.1907893043571636,-0.16520442955676007,0.10727799686577257,3.770959854554182,0.38853218590644933,-0.24134724703010782,3.0415790086009658,-1.5707963267948966
13.747832536697388,3.6535396827256923,3.864396866277323,2.5319615857474966,-1.058878950066471,-0.16585983678662475,0.09705829717363056,3.640140976741004,0.7781108572970227,-0.24898372356214035,3.010163082065068,-1.5707963267948966
13.767897367477417,3.6330813052787034,3.861259959716384,2.5338524947125167,-0.9874018306805188,-0.14661887637269544,0.09201038980355995,3.507232047907722,1.141703622152844,-0.2556470219838399,2.9787471555291702,-1.5707963267948966
13.787842273712158,3.6241173353441116,3.8594231921109463,2.5346994381778307,-0.9301021109519642,-0.14586322281841468,0.08773511092542248,3.648201059920791,1.3263119376071897,-0.2602304655653269,2.9473312289932725,-1.5707963267948966
13.807913780212402,3.6062532550971977,3.8567826890088868,2.5364018292538515,-0.8559074913816894,-0.11762542907820842,0.08249140883148051,3.767737508247186,1.494815941862737,-0.2640072007823213,2.9159153024573747,-1.5707963267948966
13.828104496002197,3.5909330441243803,3.853662315860618,2.5379706185814377,-0.7575995392479401,-0.11199567273652657,0.0766737714673225,3.543856620912884,1.7251866399378588,-0.2658408042875894,2.884499375921477,-1.5707963267948966
13.847936630249023,3.570341409203088,3.850487881706865,2.540168930213315,-0.6377031629901644,-0.07919943892474751,0.06913423025940287,3.273013412239575,1.429587278951501,-0.2661814379750189,2.8530834493855792,-1.5707963267948966
13.867892742156982,3.5582244257048954,3.849171150530342,2.5414983840727934,-0.574862542709888,-0.05338944954700471,0.06381189549217846,3.0128031179519343,1.1548479583085989,-0.2659597898028215,2.8216675228496815,-1.5707963267948966
13.887828826904297,3.553309325865998,3.848620860488856,2.5420290194373023,-0.5274259805146628,-0.04429840641739796,0.05804722838444094,2.718025847061878,0.9471531054891416,-0.26402062433267137,2.7902515963137837,-1.5707963267948966
13.90805459022522,3.5432854678916335,3.847911169929848,2.5431373102436963,-0.47589533271236456,-0.02731688881385411,0.052789715221032284,2.437365930955694,0.7532762205755091,-0.2616619737081621,2.758835669777886,-1.5707963267948966
13.928288698196411,3.535962872586849,3.848827372979837,2.5436893064502386,-0.38615638914553096,0.024546579541105118,0.03590230680025254,2.1213025081597023,0.9999240175044104,-0.25511101774116485,2.727419743241988,-1.5707963267948966
13.947921514511108,3.5266494634246732,3.850988712755484,2.544329524698335,-0.28788945197238897,0.08237766578094963,0.019291823240662826,1.7523998633020301,1.0999268849155586,-0.24528429484167596,2.6960038167060905,-1.5707963267948966
13.96794080734253,3.5212185402543215,3.8528626345463177,2.5446669543081626,-0.25636744223120106,0.10532899350753737,0.014483551705184365,1.4030196774667392,1.1942729127452907,-0.23556014389735713,2.6645878901701927,-1.5707963267948966
13.98780632019043,3.52001757380189,3.8546432648098157,2.5445719992505804,-0.20734789488251917,0.13931939034046206,0.005865960441766435,1.1934829561635465,1.624254014500154,-0.2244524610067898,2.633171963634295,-1.5707963267948966
14.007925987243652,3.51609578004307,3.8577814904333563,2.544645157568307,-0.18550090065037192,0.17582492957601942,0.001486169823593157,0.9926543704102198,2.0207949663376206,-0.21356290276363696,2.601756037098397,-1.5707963267948966
14.028119802474976,3.515730463564203,3.8597668499282674,2.544473057551458,-0.13840982116528572,0.20159919696475945,-0.0054570620245984695,0.5821261067155387,2.3718353262453133,-0.20185360917041692,2.5703401105624994,-1.5707963267948966
14.047881603240967,3.512922627718534,3.8687918928779057,2.5439548779477636,-0.06115267948518469,0.27784338834511463,-0.016471234730196897,0.35353164203697285,2.958106759211169,-0.18847774246855348,2.5389241840266017,-1.5707963267948966
14.067872524261475,3.511755712234002,3.8749770566526283,2.543588628215267,-0.05625622721405328,0.34246711153148407,-0.020110563867504806,0.13831922855411438,3.4963635700583082,-0.17552525017675413,2.507508257490704,-1.5707963267948966
14.08785343170166,3.5124492142564394,3.8778757543996263,2.543418189723279,-0.015641251437935336,0.3612236814732064,-0.020361580895771413,0.631250170670641,3.9858549824809524,-0.1637070567214545,2.476092330954806,-1.5707963267948966
14.107971668243408,3.512293375641771,3.8859278670555737,2.5429789860726943,0.001559277471486623,0.44547541237070143,-0.023520621300200335,1.0818342966115833,4.432221658727228,-0.15225811599803488,2.4446764044189084,-1.5707963267948966
14.128554105758667,3.5131155394233575,3.8893004034299268,2.542917273179457,0.03276420471856159,0.45412894180794017,-0.019417805243971534,1.1860364952710887,4.587688718380431,-0.14289029935314773,2.4132604778830107,-1.5707963267948966
14.14786410331726,3.514597971578851,3.9090861335968503,2.5425637332385387,0.056996654866568575,0.5872149608803165,-0.011154658600179636,0.9405693140775819,4.384689934249305,-0.13641488130811122,2.381844551347113,-1.5707963267948966
14.168046474456787,3.515910326374758,3.921694065341947,2.5423137846601276,0.07346528740806085,0.6729167273890758,-0.013818890055739878,0.7085032827689915,4.18624370861228,-0.13002214602826376,2.350428624811215,-1.5707963267948966
14.187892198562622,3.5166915400507732,3.93548587882255,2.542572890278083,0.06532648914214334,0.7456875175014692,-0.0029287926521155473,0.29921848473563617,3.9468692320728898,-0.12687332468753687,2.3190126982753174,-1.5707963267948966
14.208010196685791,3.5180320056900207,3.951173416731981,2.5424891552069986,0.06744735200146616,0.8222931188388481,-0.005433852551884695,-0.0826089443542365,3.7149213952820874,-0.12361484449151926,2.2875967717394197,-1.5707963267948966
14.22797679901123,3.518830571339153,3.9601312645712783,2.542594619786968,0.06990344531111099,0.874411981503296,-0.0023023246074378913,-0.24239132528296015,3.526344428992635,-0.1212712083611449,2.256180845203522,-1.5707963267948966
14.247934818267822,3.520170030748319,3.978312475046409,2.542524482875319,0.06354450735585372,0.9430986972673168,-0.004703052048283309,-0.3917917155953131,3.3432327506368256,-0.11877696103395895,2.224764918667624,-1.5707963267948966
14.269784927368164,3.522489744287198,3.9995131843256653,2.542400243512731,0.08337139717091978,1.0518841931049228,-0.007494659482174464,-0.4241570550923698,3.2751824976413593,-0.11559147161445922,2.1933489921317264,-1.5707963267948966
14.288016319274902,3.5240701938755117,4.0212011861875325,2.5422274488149466,0.07456639783411216,1.1166771102333357,-0.009773899543822235,-0.4563060485148649,3.203520249863072,-0.11231832605371149,2.1619330655958287,-1.5707963267948966
14.307921648025513,3.525231769082237,4.033671117673237,2.542082282144215,0.0802443616943417,1.180263259843489,-0.012018303550188066,-0.6144904134963524,3.1110682208863913,-0.10858812787952235,2.130517139059931,-1.5707963267948966
14.32789421081543,3.527458942661181,4.0715495632767515,2.541645653544938,0.06292404201932793,1.3035822546607025,-0.016005704343009547,-0.7592984444267001,3.065523455775688,-0.10414094302360603,2.099101212524033,-1.5707963267948966
14.347841739654541,3.528923113493613,4.111530255431519,2.5411147650581203,0.03926968616219361,1.416762888846532,-0.019644857684655966,-0.8127750993583436,2.913035766716604,-0.09911123145133306,2.0676852859881354,-1.5707963267948966
14.368004083633423,3.5295425623124363,4.1404381149969485,2.5407023780321425,0.022508581887564473,1.473525466963063,-0.021577275775213955,-0.862760690357724,2.7637552884187397,-0.09414051025112175,2.0362693594522376,-1.5707963267948966
14.387848854064941,3.5297349252774146,4.171848905355473,2.540199066372775,0.0015315912683889193,1.5635518388715748,-0.025272628891932,-1.0634018529256384,2.7367470178871343,-0.1409505383765989,2.00485343291634,-1.5707963267948966
14.407999753952026,3.5295404303445785,4.203665434267949,2.539662488935929,-0.021588125468721242,1.6180072629732953,-0.02852879710067099,-1.245521917150546,2.7086108922637924,-0.1840567917722976,1.9734375063804421,-1.5707963267948966
14.427982807159424,3.5292937803070785,4.220865078614247,2.5393377605866245,-0.03592823413897567,1.66932653300175,-0.03145593400616085,-1.6044772730253243,2.628165139603258,-0.22026003860700688,1.9420215798445444,-1.5707963267948966
14.447967767715454,3.5282320299667242,4.254772074000034,2.5386623356985134,-0.0713343595247526,1.7211177959842077,-0.0361966472621817,-1.9307590352121078,2.5516008115241218,-0.2532891534689633,1.9106056533086466,-1.5707963267948966
14.467950582504272,3.5278235198261862,4.272878625831853,2.5383361547058056,-0.07840947842268986,1.7683714488422513,-0.03753201300107924,-1.868103978372291,2.5625740283544296,-0.28099465283669767,1.8791897267727489,-1.5707963267948966
14.487863063812256,3.5252188478781106,4.32775084977659,2.537197207288803,-0.11779116336751082,1.8643755301306566,-0.0413468533219667,-1.785991947993945,2.61975892313033,-0.1172203966637728,1.8477738002368511,-1.5707963267948966
14.507961988449097,3.522511416894641,4.3655658238514015,2.5363571240915697,-0.15267051341964266,1.917292519883655,-0.04215677499409274,-1.7015674390685296,2.670954159874752,0.034191809957495586,1.8163578737009534,-1.5707963267948966
14.52795958518982,3.5192618994599907,4.405065228975519,2.535471916595518,-0.18341082526698554,1.9848668055330443,-0.043560910112519724,-1.4861245498975861,2.6277100568508454,0.0326017106820714,1.7849419471650556,-1.5707963267948966
14.547958850860596,3.5153104022735584,4.445285214222469,2.5346071186849017,-0.21104859092797323,2.0369869157309273,-0.04292378574169433,-1.27903136104137,2.5842692401189633,0.031130217626883002,1.7535260206291579,-1.5707963267948966
14.567965745925903,3.5126136297923125,4.466019860862386,2.534065423390827,-0.2374334738502171,2.0700321925486254,-0.044811399201566494,-1.0149412621116805,2.6559909101228754,0.14306273889786614,1.72211009409326,-1.5707963267948966
14.58784818649292,3.5039630798189485,4.529473200135063,2.532643953097021,-0.2957176307185957,2.154482960810133,-0.04364810102741133,-0.6137512997239377,2.7342564888363863,0.2805851410642407,1.6906941675573623,-1.5707963267948966
14.60800814628601,3.497951606747192,4.573114580885476,2.5318356995657143,-0.3041665692357395,2.209892907670889,-0.036757163359896816,-0.23481120103487038,2.8055971402735977,0.4066163484527263,1.6592782410214646,-1.5707963267948966
14.627853155136108,3.4897185456360265,4.61782627475466,2.53084458267633,-0.3595628896539864,2.2644315837796696,-0.036304101239180264,0.17392077330738134,2.8455939336456195,0.5320602240659585,1.6278623144855668,-1.5707963267948966
14.648069858551025,3.4825881495580413,4.663686451910528,2.530232699750181,-0.3521921311230546,2.3217035197921145,-0.024504308146054667,0.5593051464566103,2.8808121038998546,0.6460298150928322,1.596446387949669,-1.5707963267948966
14.667940139770508,3.477344621875808,4.686858457013634,2.529740382044239,-0.3945189228886721,2.3447136079137243,-0.026458489630064717,0.8154934884249699,2.840523722603067,0.5800421025116813,1.5650304614137713,-1.5707963267948966
14.687890529632568,3.463823916566191,4.7582877829996555,2.528976244177762,-0.4260160748954209,2.4242735525701073,-0.015673592447644786,1.094108623329951,2.7886108134446688,0.5182318982213329,1.5336145348778736,-1.5707963267948966
14.70792007446289,3.455540188910177,4.807327565206216,2.5287624510257154,-0.40148129891325546,2.4795349370818704,-0.005901586267303616,1.35673178973233,2.737691097748422,0.4594717891592784,1.5023648583169793,-1.562483828044714
14.728023529052734,3.445035349183064,4.857343035242851,2.5286692300950158,-0.43988445485194966,2.5310394641533245,0.0016610731406432524,1.650042925442351,2.662196051644918,0.4056063344122703,1.4948719200705636,-0.3746469123207863
14.748067140579224,3.436586291769174,4.90849128942112,2.5287801194511617,-0.4041054560101541,2.583538210380817,0.009257461272814509,1.9247989925736928,2.587872859699372,0.35448500915408454,1.4791322255748218,-0.7869847247870876
14.767955541610718,3.431028560967886,4.934487980713164,2.528957781935421,-0.42881438835985175,2.609164634293722,0.014444063026920412,2.1126979405312962,2.4317738205115376,0.3079680770691333,1.4621646268369703,-0.8483799368925737
14.787858486175537,3.4132205635210444,5.041109346516458,2.530033797233466,-0.40070732828861483,2.7126305352026097,0.034427603574912403,2.1839261013651994,2.2239920903637977,0.4677590064872824,1.4340185074040779,-1.4073059716446235
14.807939767837524,3.4056477616652105,5.09579338966514,2.530825846120263,-0.3563480035526123,2.755113492242179,0.04526289829198507,2.251383309959599,2.0259025831513173,0.6134486409366013,1.4251592125169985,-0.4429647443539686
14.827994108200073,3.401184613160938,5.123737031021933,2.5313640277225327,-0.361426517026774,2.7834622363160846,0.05167069553529271,2.3005818757834535,1.9720839696756085,0.4760528758485548,1.3937432859811008,-1.5707963267948966
14.84811806678772,3.39441937927115,5.179797085499806,2.532483910553192,-0.31493952238907535,2.8223625576148006,0.059887384143510955,2.347787090139894,1.9178884311502762,0.34698867967197206,1.362327359445203,-1.5707963267948966
14.868037939071655,3.3907494000704643,5.208611600618087,2.533131809417329,-0.3080841656902764,2.8551812663284815,0.06605504219221091,2.442965466245342,1.8899297903418384,0.5258704754649033,1.3354192197039767,-1.345406987061315
14.887876987457275,3.379863453622445,5.32484377674677,2.536291844614895,-0.2207256331368696,2.9420306327060692,0.09085254300473902,2.627403812576462,1.8127049117368863,0.7660806135016882,1.311607731578464,-1.1905744062756352
14.907999038696289,3.375986040407471,5.384042003154786,2.5382770136616495,-0.16644589668167517,2.9775492730537114,0.10839119114399302,2.7983465059423076,1.7398822908227392,0.9841387685369576,1.2982550480956894,-0.6676341741387315
14.927932739257812,3.374332291010823,5.4140617373227675,2.539377970746534,-0.1407661262346115,2.9986387820021325,0.11966329716690695,2.941224093599391,1.6549617714124902,1.2673007223338546,1.283410152534925,-0.7422447780381924
14.948098421096802,3.3721142137313436,5.474360090996166,2.5420421862809612,-0.08060022143833066,3.030929919953531,0.1476099253693856,3.073641945901566,1.5749597518238376,1.5228133440686318,1.265463133198515,-0.8973509668205093
14.968009233474731,3.371268457633545,5.504973486620079,2.543298254884296,-0.054496758738158325,3.053390624815891,0.15279645301133749,3.143395663485092,1.6069660911183496,1.3209281137358004,1.2340472066626171,-1.5707963267948966
14.987910509109497,3.371453391623946,5.628729538028895,2.5501826232387845,0.06911392227160458,3.1248914707529494,0.19818320562677724,3.2151540321880865,1.5407651971868543,1.0754536179457441,1.2026312801267194,-1.5707963267948966
15.008022546768188,3.3734832512320447,5.691531126350431,2.5543457200410518,0.13409570728772538,3.1550479790725667,0.21735520976204828,3.2822562118199303,1.4749506183400956,0.844068933853719,1.1712153535908216,-1.5707963267948966
15.028663873672485,3.3751172438944423,5.723215197316078,2.5567100769706905,0.1714919047635403,3.170705230336791,0.22860769065444136,3.3660936678222946,1.410537435592947,0.6389403658218039,1.1397994270549239,-1.5707963267948966
15.047985553741455,3.3792256037228134,5.786907063931351,2.5613969612225125,0.2396045143003957,3.1982633303095707,0.2394380168971445,3.444226539374264,1.3451081609018436,0.44612042185306494,1.1083835005190261,-1.5707963267948966
15.068051099777222,3.3819134798397634,5.818964889491671,2.564258568616183,0.27847378952997215,3.2116461961582137,0.2551312535567996,3.5578116111560876,1.336769237609699,0.2743760850412278,1.0769675739831284,-1.5707963267948966
15.087868213653564,3.3959654221686093,5.9484057706962155,2.5755409392571025,0.42296164993684277,3.261035108498699,0.2855542703854903,3.6063118825176943,1.186662412749501,0.1122650126332127,1.0455516474472306,-1.5707963267948966
15.108019351959229,3.4051489225602407,6.013854049360852,2.58126419795026,0.49553488058795175,3.2833091037788065,0.2862662941835022,3.6502609515447597,1.0415647041400684,-0.039330504219524005,1.0141357209113329,-1.5707963267948966
15.127935886383057,3.4104067566060805,6.046648734849191,2.584510164591553,0.5362652843832297,3.2900921567418413,0.2955107364066366,3.7291014683164248,0.9001801484934058,-0.17236880178120242,0.9827197943754351,-1.5707963267948966
15.148013353347778,3.421882810300321,6.112621425963152,2.590377497055911,0.6115810642046916,3.3067214716437396,0.2908096620801924,3.80139757706119,0.763533796112532,-0.29622683630199326,0.9513038678395374,-1.5707963267948966
15.168035507202148,3.4283134671131568,6.14583831001302,2.5936753884982093,0.6539567848575423,3.316178436426674,0.29821586384210524,3.8883215297233034,0.5919139924152834,-0.40408643036637787,0.9198879413036396,-1.5707963267948966
15.187901258468628,3.4576949888313524,6.279377865488634,2.605852971816262,0.8126980489200903,3.3484188361247553,0.29490790623830354,3.919256541773195,0.38554338959593065,-0.5002565142239573,0.8884720147677418,-1.5707963267948966
15.208099365234375,3.4747346003727575,6.346410068784943,2.6116450402106954,0.8913487433877262,3.3541452321870175,0.28400314205234795,3.9449501553388364,0.1886618120975161,-0.5889969188922147,0.8570560882318441,-1.5707963267948966
15.228657722473145,3.493558671908617,6.413915778539,2.6175267916084515,0.97514468998093,3.366837757241521,0.27964752675156684,3.888267644189503,0.05857393515285254,-0.6280867374004723,0.8256401616959463,-1.5707963267948966
15.248299837112427,3.5138355185523733,6.48125578545117,2.622991708389016,1.0523562280488177,3.366743246305789,0.2667264452970144,3.833143214824397,-0.06733338965049322,-0.663400172041309,0.7942242351600486,-1.5707963267948966
15.268587827682495,3.5247929692853677,6.515201574459997,2.6257450562626636,1.0979929947095166,3.372246992199373,0.2629904890767571,3.8479812610703883,-0.2636326127453279,-0.6929489076846408,0.7628083086241508,-1.5707963267948966
15.287968873977661,3.547523265908839,6.582581138101899,2.6308644723526102,1.1750762452304757,3.3650840926937127,0.24886365027449822,3.8598557091607666,-0.4512191945943883,-0.7191912731649339,0.7313923820882531,-1.5707963267948966
15.308042049407959,3.5598397087356077,6.616550721435245,2.6333559501271693,1.2244693777459623,3.3694976797494496,0.24242192303334467,3.871729501238841,-0.5352983268869508,-0.7399565865591314,0.6999764555523553,-1.5707963267948966
15.328035831451416,3.5851040912279775,6.683828077423015,2.638055156129622,1.301998979276474,3.357962145686288,0.22743897054716855,3.8807629795662537,-0.6180302744144532,-0.7578699003100343,0.671113428516211,-1.4431513518072148
15.347941875457764,3.6124707025854024,6.751487729167704,2.6424407833983663,1.3933348304050026,3.3599787255298086,0.2115254792719377,3.8889574217314187,-0.7046304350517186,-0.7974484095783009,0.6396975019803133,-1.5707963267948966
15.368190050125122,3.656346463298018,6.852227075190786,2.6484103349842023,1.5197489247741363,3.3445492527219494,0.18688467781834733,3.9511152254196573,-0.869562955437961,-0.8268431468515937,0.6082815754444155,-1.5707963267948966
15.387813806533813,3.703968182530542,6.952334897657777,2.653627331695574,1.644915399487117,3.3219925522729747,0.16162225491833374,3.9056923241772497,-0.9993798922072624,-0.8219224781282701,0.5768656489085178,-1.5707963267948966
15.407959222793579,3.7376446043763325,7.018566412166144,2.656695791913011,1.7225756191575448,3.300739082922066,0.14524491815449292,3.860342715243049,-1.1253252845023363,-0.8155778800954876,0.54544972237262,-1.5707963267948966
15.427842378616333,3.755311136290248,7.051620381828272,2.6580811396500295,1.7680791527478075,3.291043095026372,0.1379439684845172,3.826707974234731,-1.27516543215378,-0.6095185904666014,0.5198578327960739,-1.2795944788273061
15.448057889938354,3.7914357779775574,7.117176478203521,2.660731113565936,1.844270205351425,3.264084169986477,0.1276911754270655,3.79226532229894,-1.4198783488403341,-0.41818727339047285,0.5041721674392621,-0.7842832678405909
15.467982053756714,3.810412756388444,7.1499220860124435,2.6617992978464673,1.8919427007568355,3.2529487664790175,0.1192042657529766,3.7646576369078737,-1.642751677374003,-0.2506850723575728,0.4727562409033643,-1.5707963267948966
15.487820148468018,3.8897792338491146,7.2791841993137165,2.6656401162876726,2.058981879189855,3.196885591542863,0.09073712136984562,3.691434012503957,-1.826530271975754,-0.3109260013415937,0.44134031436746657,-1.5707963267948966
15.507999897003174,3.9316923369814387,7.3427447615687305,2.6673889005322984,2.1320883736153973,3.15858519774651,0.08395664883309233,3.619415773522654,-2.002163531551495,-0.3663243117426889,0.4129764034945942,-1.4181955436436189
15.527915000915527,3.953647140862854,7.374431235605306,2.6679300204608265,2.180303423248582,3.1427962407352745,0.07228803358096562,3.520128934427764,-2.1700015299882054,-0.41028302575065784,0.38590403156357533,-1.3536185965509429
15.547884225845337,3.997950750859934,7.436842343885831,2.6692909942948737,2.2497355941536643,3.0977799324084585,0.06367612925345875,3.4235336175711355,-2.3304001516434845,-0.4502509280928673,0.37103723641367514,-0.7433397574950096
15.5679612159729,4.021092640680998,7.468027983601851,2.6698162981658315,2.297391908967244,3.0823921220222137,0.056534111629031436,3.4321043108970257,-2.472965134655031,-0.4817977579686595,0.3396213098777774,-1.5707963267948966
15.587876558303833,4.067727146537784,7.529171994562518,2.6708486851321913,2.36606569784254,3.0315514490549114,0.046610547789674814,3.43421388209908,-2.610223843635621,-0.5100104210498156,0.3219806438613584,-0.8820333008209502
15.607950210571289,4.116351557773126,7.5898705198207885,2.671697551074414,2.448864632316631,2.991720469559559,0.036850104984614156,3.3676638843057476,-2.863217415299916,-0.530589209684113,0.29056471732546063,-1.5707963267948966
15.627978324890137,4.191599403739961,7.678709943528491,2.672631130757613,2.5573376280794107,2.9155852341942428,0.024615729199618516,3.356741718775624,-2.987691607949753,-0.3177312776643573,0.2591487907895629,-1.5707963267948966
15.648077011108398,4.24341656733633,7.736416069027564,2.673073299647844,2.62432844102344,2.8546295260003425,0.020258190195015627,3.3416567542932603,-3.107029847411187,-0.12061610380902378,0.22773286425366512,-1.5707963267948966
15.668020248413086,4.270026586312154,7.76508905211961,2.6731956758809283,2.6630295206976013,2.829782140252838,0.016191016523089935,3.3029100149650277,-3.290009536676909,-0.17519359133518334,0.19950209056684587,-1.4115386843409627
15.68786096572876,4.37949371982656,7.876034144752212,2.6734050957900095,2.8020483103739178,2.7047175949222444,0.0021481412143526256,3.2263665086064157,-3.585170507039361,-0.2207440044800667,0.16808616403094812,-1.5707963267948966
15.707973957061768,4.436174802414356,7.9293926736544895,2.673401062002867,2.865801235072518,2.630210481075389,-0.002690806881049613,3.1487536997836134,-3.862621179763321,-0.262531691778961,0.1436747615404359,-1.2205701245256106
15.728050708770752,4.494389233848238,7.981569322645633,2.673301231753315,2.9347303083967335,2.5608352878960967,-0.007505831894655529,3.0534629331522196,-4.057746269889539,-0.2968616034338484,0.11225883500453815,-1.5707963267948966
15.748067378997803,4.55368816437682,8.031962059633427,2.6730896142359017,2.9948441026795374,2.4778271339136184,-0.013759718331794133,2.957871406089112,-4.241133496517377,-0.3280025496694346,0.0955219509510763,-0.8368442026730927
15.768052339553833,4.5839640771314905,8.056917010299312,2.6730615374578792,3.0289456660602596,2.445220263233822,-0.013584670477154432,2.895180954146648,-4.375116011631683,-0.3542126546298728,0.06870717549226635,-1.3407387729404974
15.787968873977661,4.645117732963604,8.1049379093965,2.6727173936481625,3.086203376487967,2.3564528933216145,-0.020907814367009624,2.8302205050522833,-4.500145258694727,-0.37764507378377143,0.0520314518886158,-0.8337861801825275
15.807997941970825,4.676337251936779,8.128713682720036,2.672657823259568,3.1202417272634873,2.322883979458402,-0.020073653340916448,2.7994762007877756,-4.572043087400118,-0.3972254662665845,0.020615525352718045,-1.5707963267948966
15.844889163970947,4.803628667218739,8.218397290944013,2.671780540085905,3.237063879607038,2.1485668686860455,-0.030185830606578517,2.718278132273571,-4.678712029149459,-0.41229059950795427,-0.010800401183179709,-1.5707963267948966
15.847825050354004,4.868908164926608,8.260426153927986,2.671093470370146,3.290613764451261,2.0539890774921883,-0.03856409647066473,2.636640854432324,-4.777820371025925,-0.42517829234486404,-0.040268065593562774,-1.4733832205191533
15.867972612380981,4.935242305817476,8.300544135431236,2.6702363998339242,3.342526882029201,1.9575033873826775,-0.047178863005271854,2.5546088133216687,-4.8695286822519925,-0.43595109091659057,-0.05570411325989166,-0.7718023833164445
15.887853622436523,4.96890259356055,8.319886482973113,2.6699473537129337,3.3696282778257456,1.9079358746273618,-0.04744190298146978,2.472276897460005,-4.953551396332733,-0.44277634716427117,-0.08712003979578942,-1.5707963267948966
15.907953262329102,5.036784101865922,8.357049219797794,2.668909591378711,3.4182465458627997,1.8080797415108063,-0.05635137140204072,2.3894756331963256,-5.030973659068449,-0.44788950801993804,-0.10765734530515925,-1.0268652754684915
15.927953243255615,5.071184567775413,8.3748990363,2.6683893114455075,3.4434052186818276,1.7568639976755847,-0.05897590597023239,2.2080638151868284,-5.201117326318677,-0.450611010515282,-0.1351367107391872,-1.373968271701398
15.947942733764648,5.175682647236863,8.425371409461516,2.666491720298788,3.513364587049679,1.6025765547780102,-0.0703612149855334,1.9370395686469566,-5.373817754133243,-0.4501939514146003,-0.16655263727508496,-1.5707963267948966
15.968095302581787,5.246319919856997,8.456337356129337,2.664994548819015,3.549501888138346,1.4934884607021333,-0.07935030865197555,1.678799108443015,-5.532718504123813,-0.4485073554034637,-0.18405409015754648,-0.8750726441230761
15.987927436828613,5.2822033649421725,8.47112659458445,2.664251169202123,3.5730330518674966,1.4407053382428945,-0.08176183308021533,1.4156305350232967,-5.675376123507716,-0.44543358594364196,-0.20816395872198123,-1.2054934282217378
16.007850885391235,5.383404147282442,8.509478533302365,2.661834756820939,3.62852861424862,1.2875565203959796,-0.09284080647002266,1.1678427093662012,-5.815449731163778,-0.43988168616545575,-0.239579885257879,-1.5707963267948966
16.027942180633545,5.4561923807343105,8.534057896204247,2.659890381188849,3.649509440606733,1.169956755399081,-0.1015751524933324,0.9322513448904135,-5.9423593680128315,-0.43340098654222103,-0.2569521754511439,-0.8686145096632458
16.047926902770996,5.530471219206598,8.556578924639323,2.6578099343300643,3.694358966698826,1.058444497448949,-0.1093146229937675,0.7381496461630273,-5.973604679628567,-0.42491538169898746,-0.28836810198704166,-1.5707963267948966
16.06800603866577,5.604493524413034,8.576551317536182,2.6555392606505066,3.7072535397367563,0.9387110307982743,-0.11772206326514999,0.5527425405899994,-5.998735656596156,-0.4157113633585686,-0.3036925384779634,-0.7662218245460872
16.08790946006775,5.642319151076854,8.585735199853032,2.6543474023822387,3.7329837713615888,0.8822656097961474,-0.12165791154872158,0.5395938793156086,-5.852729253526078,-0.40590075884956006,-0.331770872870945,-1.4039167196490787
16.10829448699951,5.7929190947593,8.616030891986284,2.6491114845195636,3.773307387033325,0.6399295718762995,-0.139075063490569,0.4359978928170904,-5.76324380718356,-0.39269543303222687,-0.36318679940684273,-1.5707963267948966
16.12799572944641,5.868465606087264,8.627682757252014,2.646252342973632,3.7810031285777184,0.5255523640698032,-0.14679385269225595,0.3338130581041936,-5.674621055053264,-0.3791242593306267,-0.39447807647596633,-1.56456385345618
16.148019552230835,5.90646811236925,8.6322089160278,2.6446697726364814,3.7871730520372195,0.4560021938307654,-0.15334253265212114,0.11906380204603799,-5.654492983229052,-0.3650244883130645,-0.4140175334493459,-0.9769728486689777
16.168248414993286,5.982221582463572,8.640199563923783,2.6415308702968607,3.787492227577219,0.34314036302132317,-0.1604998287469924,-0.08545849052917312,-5.63116434158791,-0.35066302291896745,-0.4336651193913026,-0.9823792970978351
16.188077688217163,6.020282989936626,8.642773205625472,2.639745909829844,3.790288277886013,0.27065641295487497,-0.1685429384444083,-0.3018572921161688,-5.60318728716254,-0.3356036606888513,-0.4596362501947717,-1.2985565401734567
16.20795965194702,6.134277613145882,8.647821271045016,2.6343695785803507,3.791688821498294,0.08747916627076863,-0.18325655661279486,-0.509554847627871,-5.540877037415878,-0.3183581457605701,-0.4910521767306695,-1.5707963267948966
16.228049993515015,6.20999618962023,8.648466901099443,2.630641924761632,3.7795135608795043,-0.0227039484428091,-0.1894513959572656,-0.7061382423597174,-5.477214393506178,-0.3011295422335044,-0.5146815776967606,-1.181470048304556
16.247939586639404,6.278529073915303,8.646457888926403,2.6269790763073666,3.7808182985134704,-0.13928052021571638,-0.1999062782604352,-0.9366178048366886,-5.4409258956313336,-0.28316503943875354,-0.5460975042326588,-1.5707963267948966
16.26797103881836,6.353943449487943,8.642586695211596,2.6229255092796913,3.759897414159569,-0.24770577118488182,-0.20539095255594095,-1.1531763619524307,-5.401003933462234,-0.2653235927518206,-0.5601835671610762,-0.7043031464208704
16.2879319190979,6.391950539658742,8.63934064721041,2.6207209216801086,3.7597405247593945,-0.3153684781119576,-0.2118023991316995,-1.354125339390394,-5.33900297482743,-0.24797020008142662,-0.5915994936969744,-1.5707963267948966
16.307859182357788,6.504664779054683,8.62696198140524,2.614113685232208,3.7318417362283274,-0.48993344962682667,-0.22311690383896,-1.616695765484697,-5.302165467207921,-0.22951681092079257,-0.6230154202328722,-1.5707963267948966
16.327918529510498,6.5789616251531,8.616105515290123,2.609606661722003,3.69702447470243,-0.5955784190010414,-0.2275247579047197,-1.8622218812704978,-5.261744688012095,-0.2113101073312151,-0.6490440700317373,-1.301432489943255
16.34790587425232,6.653188459686962,8.602422606966542,2.6048261492548956,3.674820731170609,-0.7181016135126197,-0.2362067333134366,-2.0530473471939295,-5.197566038758237,-0.19325346242986777,-0.6804599965676355,-1.5707963267948966
16.367916107177734,6.762937873997781,8.57810824796929,2.5975633332914114,3.623422316904608,-0.8854825585548068,-0.24434863853830527,-2.2744205500520756,-5.095930347235353,-0.17496585630439862,-0.7118759231035332,-1.5707963267948966
16.38798189163208,6.834937431185458,8.559386162875173,2.592642570003932,3.5758455441433363,-0.9863887536079883,-0.24766783377862298,-2.4807835750480325,-4.994771795421374,-0.15700896217771657,-0.7422627328179252,-1.5193404857196002
16.40783977508545,6.870877223303685,8.548869747547332,2.5900970589419288,3.5573528527690343,-1.0467155220679143,-0.2508057365894426,-2.741430176837284,-4.864698171910347,-0.14074510246372074,-0.7616359234853065,-0.9686595333690651
16.428001642227173,6.941459557665669,8.526971002011834,2.5850538663363936,3.5000742111148933,-1.142736569697099,-0.25346018661498454,-2.983349159353452,-4.737958963869697,-0.12474395097560473,-0.7820302349431674,-1.019715572893043
16.4478440284729,7.011562999855302,8.502394415136436,2.5798655725498074,3.4585528511501407,-1.2556135293810338,-0.25814928340753274,-2.9182731759942975,-4.565998612340297,-0.10988022410388242,-0.8134461614790656,-1.5707963267948966
16.468320608139038,7.114278458433418,8.462108897866052,2.572014997941005,3.3775559401348043,-1.407782427355968,-0.26297337093702855,-2.9576310551454816,-4.460116057722514,-0.09529891836448273,-0.8448620880149633,-1.5707963267948966
16.487895011901855,7.1812357118027,8.433068251890505,2.5667374310707354,3.3180571166325667,-1.4959314428930468,-0.2647354968762836,-2.991317370633029,-4.354898260266244,-0.08095320748972253,-0.8712514188109286,-1.3194665397982641
16.50798726081848,7.246996622741385,8.40228562366371,2.5614274749578603,3.2579401488406754,-1.5819829471946774,-0.26621309115848235,-3.019468156441745,-4.250368877018929,-0.0668462848946913,-0.8875702151725502,-0.8159398180810795
16.52805471420288,7.2468086295715635,8.401582640359752,2.5613149738323506,3.248666621056313,-1.5976939130809804,-0.26889364905699664,-3.421324772577053,-4.153115686646923,-0.05510722152310192,-0.9114653427862365,-1.1947563806843142
16.547992944717407,7.311007177460063,8.368523088702986,2.5558733773523525,3.1745644998844473,-1.689305143854052,-0.27165794044800673,-3.799930047646674,-4.082239596671185,-0.04385430623621386,-0.9424612954966953,-1.5497976355229426
16.568033456802368,7.435302196659678,8.297099643508583,2.544900797500792,3.0292058495141734,-1.8659273051608234,-0.2746781189193564,-4.136880536455692,-3.995605516236468,-0.03297422033304113,-0.9738772220325931,-1.5707963267948966
16.587942123413086,7.495037793154678,8.258987767940061,2.5394013601192547,2.943318281146597,-1.9449704272825687,-0.27522972122749745,-4.44754635478084,-3.9086590827330796,-0.022204904813371455,-1.0052931485684908,-1.5707963267948966
16.60789465904236,7.553654796740044,8.218926876091471,2.5340261329200526,2.870678761042582,-2.03212679256366,-0.27193244225594937,-4.522186007160517,-3.861971863167271,-0.014194889005912767,-1.0367090751043886,-1.5707963267948966
16.627907037734985,7.610159562715855,8.177515306903162,2.528585181022142,2.7795891564882704,-2.108858013351231,-0.27213592306591705,-4.584795185534612,-3.8103409201022456,-0.006147686733580244,-1.0569995747249648,-1.0145249810288082
16.64788508415222,7.638166718766945,8.156058485177475,2.5260092633039473,2.7477111634152673,-2.1519955193276177,-0.2675552640400442,-4.319803483941268,-3.8413494099903773,0.05392969112245248,-1.0884155012608625,-1.5707963267948966
16.667998790740967,7.692274129619876,8.112248726044497,2.5206727581309565,2.6638787907597443,-2.2290513247522368,-0.2659076878208089,-4.065139746984973,-3.862633217847657,0.11020076649558831,-1.110388763222712,-1.0986630980924783
16.687975883483887,7.71861573489434,8.089734543295998,2.5180895250890103,2.620520299788168,-2.2676215516555596,-0.262639121529478,-3.899552370451579,-3.80588154111786,0.1593332145853999,-1.14180468975861,-1.5707963267948966
16.70785140991211,7.794559299116203,8.020155892198776,2.5101689765834982,2.4757678144516344,-2.375292732222167,-0.2614307306511287,-3.9979830991193848,-3.5995620780732014,0.146427205481099,-1.173220616294508,-1.5707963267948966
16.728198766708374,7.8432689372942095,7.971943536995764,2.5049688409572695,2.39489718236897,-2.4452778647928173,-0.2586222693666663,-4.08763259863066,-3.400083532363545,0.13459549078248104,-1.204636542830406,-1.5707963267948966
16.747955560684204,7.866048132100643,7.947449202738809,2.5022347039551525,2.3263101725319744,-2.474024788104687,-0.26172144050348234,-4.158447301437555,-3.1757511804008494,0.12425273933760224,-1.236052469366304,-1.5707963267948966
16.76792550086975,7.954925341993247,7.845574425634495,2.491740329277472,2.1384517121954567,-2.6079386431423908,-0.25969416096611303,-4.344445870401375,-2.841349396289438,0.11444101913382344,-1.267468395902202,-1.5707963267948966
16.788140773773193,7.996813919252345,7.792868788127311,2.48656872711284,2.049841306296526,-2.661569481487254,-0.2574956427116477,-4.513864759735159,-2.52465552292732,0.10556440416240741,-1.2988843224381,-1.5707963267948966
16.808039665222168,7.996653837481252,7.792725610016948,2.4865533764508623,2.0424731249196015,-2.6627251499835785,-0.2580935043414893,-4.690344754299532,-2.2565747696620253,0.09723112732347153,-1.330300248973998,-1.5707963267948966
16.827982664108276,8.055998969855379,7.711007126183894,2.4788624814068494,1.9060924642636214,-2.7520824293509567,-0.2549898636791206,-4.827032650758596,-2.040413447928105,0.08895578781048114,-1.3617161755098959,-1.5707963267948966
16.847931385040283,8.093146986130558,7.655571228321523,2.4737799679363217,1.8082991170742782,-2.7908252023659226,-0.25328612430915093,-4.950052131163177,-1.8357632704261195,0.08156307071579212,-1.3931321020457939,-1.5707963267948966
16.868027448654175,8.111198103686954,7.626876259641977,2.4712833068286475,1.765950286082419,-2.8269086733182496,-0.2495841406259846,-4.805012291804857,-1.631457909005376,0.3209143608692113,-1.3985143602585828,-0.2691129106394463
16.887842416763306,8.178037452753422,7.511499370042339,2.461344656442632,1.5766929603205482,-2.9147938314063553,-0.24243781593776567,-4.407240414852692,-1.4969491655244271,0.3580637014926604,-1.411834700552567,-0.6660170146992161
16.907999515533447,8.208715128453418,7.452912829660522,2.4565698376241993,1.4923172174593555,-2.9434278959704088,-0.23493032428962426,-4.034448309249654,-1.3672549759518804,0.39218743397325634,-1.432878594572743,-1.0521947010087906
16.927862644195557,8.222932752680528,7.423095076014846,2.4540067815955147,1.4390372553363417,-2.96365946569241,-0.23758281002628787,-3.7469490908748697,-1.1279768991204029,0.4228005415318363,-1.4182188316894149,0.7329881441664021
16.948044776916504,8.250982464020517,7.363611536058899,2.4493415887356624,1.3668383370525046,-2.9839439431811954,-0.22884357619200327,-3.475605626516085,-0.9027960082822223,0.45067162985637244,-1.4480294545401586,-1.490531142537188
16.968072414398193,8.263304568658661,7.333400519904262,2.4467324433884925,1.3013737104403287,-3.0009951110793005,-0.23407780658421024,-3.122914334433812,-0.7621395689529178,0.4763534091485972,-1.4430150855821904,0.2507184478984126
16.987825393676758,8.299464541236343,7.242564379831715,2.439531644437933,1.168052373277799,-3.0357803321050163,-0.23069348886117455,-2.8128481618051864,-0.6268997020787627,0.5004186354732143,-1.4739837121924382,-1.5484313305123898
17.008002281188965,8.322282855227293,7.181732042086257,2.4350193374870943,1.114757086937842,-3.0470270488611444,-0.2204653084945757,-2.5194237570323823,-0.49897907363865457,0.5219890428523265,-1.479972342340344,-0.2994315073952869
17.028117895126343,8.341970802166678,7.120199420556722,2.430207369940057,1.0145156167711453,-3.0680659017238128,-0.22303231164233076,-2.2102957757141786,-0.40464537961007224,0.4629166149980465,-1.504379426515919,-1.2203542087787511
17.048062086105347,8.361838827389308,7.058763240276623,2.4258355409486887,0.9732617301862081,-3.075252447056705,-0.214336060219452,-1.9178424607684372,-0.31474020350016074,0.4072734779313459,-1.510927052191189,-0.32738128376350595
17.067952871322632,8.370138225300483,7.027844618986536,2.4234786827795447,0.9179492577437086,-3.0819284449591824,-0.21716018354168926,-1.7136150854535652,-0.28155333959734913,0.35827092029264385,-1.5266243266586483,-0.7848637233729638
17.087809085845947,8.395479951756503,6.935284166388851,2.417046031584223,0.8263336451720562,-3.0874827042437207,-0.20689805651690615,-1.7087984197569634,-0.07300301356038427,0.5554964084999893,-1.545260329875452,-0.9318001608401794
17.107975959777832,8.411665119264482,6.873533215675599,2.413031496934527,0.7921947305421222,-3.0869570407546245,-0.19395255278890813,-1.705310073572317,0.12359910691171214,0.7363596536014575,-1.552934307041938,-0.3836988583242995
17.128336191177368,8.418450558943286,6.842796407743804,2.4109648408736026,0.7457222413022468,-3.0803568494890428,-0.19211283601816817,-1.7397516101995687,0.33736330272015985,0.6479290289548534,-1.5843502335778359,-1.5707963267948966
17.147923946380615,8.433014810942268,6.781270330038693,2.4072465232017914,0.7105917263199291,-3.0715825293887877,-0.1799971769935847,-1.7731213042999217,0.5378855613685465,0.564453422270112,-1.6157661601137339,-1.5707963267948966
17.16801619529724,8.446025560581488,6.719705087501259,2.4035982282460617,0.6559052385865062,-3.0656427852971837,-0.16968382536099114,-1.76317985999937,0.7646125207616264,0.7452091849247812,-1.6471820866496318,-1.5707963267948966
17.187884092330933,8.46481259844537,6.627756271572232,2.398884102191038,0.6010155634409655,-3.049975477682847,-0.14660645788494286,-1.735491175116677,1.0166190875998211,0.7316490887648995,-1.6785980131855298,-1.5707963267948966
17.207977533340454,8.476487478595784,6.566976051483113,2.3960973678062234,0.5665528781034816,-3.0272619910030105,-0.13211423770295383,-1.7113614026241986,1.2519873133904311,0.7174724048336776,-1.7100139397214278,-1.5707963267948966
17.228140592575073,8.487611343924375,6.50614481615542,2.3937287285334707,0.5358412920480972,-3.0145715335186014,-0.11414984822710106,-1.7293261357514706,1.4133813121915648,0.6999940420753105,-1.726993951005353,-0.8490005641962561
17.247832536697388,8.503078547727208,6.416005758587218,2.390810856439768,0.4889522593606502,-2.980112179803043,-0.08775841091430453,-1.7343015554899093,1.5809914081687892,0.6784992488583411,-1.7397008273168737,-0.6353438155760394
17.26791524887085,8.512510478101042,6.356730253385018,2.3891899527435645,0.4542293190841415,-2.9469217671220505,-0.07440375791897408,-1.7377399701633192,1.735968169767868,0.6569597080311286,-1.7557996651246475,-0.8049418903886885
17.28784465789795,8.517227030844692,6.327172124257226,2.388699375999546,0.4454201026398079,-2.9337540852212296,-0.05945554524786121,-1.6245171484803242,1.7957054403977533,0.9170042756123362,-1.7656651318901249,-0.49327333827386965
17.30793023109436,8.525817819878068,6.268859871531655,2.387709866451679,0.4140190697483792,-2.8972916394009927,-0.03870405726487671,-1.5164348192084451,1.8495720995589173,1.1544192176815844,-1.782911192431508,-0.8623030270691556
17.32854986190796,8.530148413914985,6.239851600064628,2.3874205548852814,0.4058246562814185,-2.8805995355383915,-0.027063886722547108,-1.5851441893897678,2.0166283141528085,1.073043572730279,-1.7980821749782376,-0.758549127336483
17.34786581993103,8.545450697521419,6.126210575570724,2.387076347297832,0.35032375454777276,-2.7991596125279177,0.013333310127527245,-1.7046547382754942,2.141405809822412,0.9899879052119447,-1.826864420316154,-1.4391122668958145
17.367985248565674,8.552108650287563,6.0706634349519675,2.3875356382459527,0.3150981450426331,-2.755174939425809,0.03232985291087464,-1.8166705350829708,2.255263115830653,0.9102074076999812,-1.8367930833197783,-0.49643315018121914
17.387851238250732,8.558723199195517,6.016125533266148,2.388635888567222,0.295429589810025,-2.7059834301813916,0.0572332331704154,-1.971764904963239,2.4221748414229936,0.8323346369548885,-1.86048927229958,-1.1848094489900873
17.407894134521484,8.564227699017877,5.9625006463306125,2.3899419902768386,0.25454331832562005,-2.656000764378554,0.07312811040440644,-2.114891994651381,2.5735308928255973,0.7576854389946468,-1.8740908117612016,-0.6800769730810785
17.42867612838745,8.567402256012826,5.936063027162535,2.3909983448989123,0.254745861655631,-2.6302401705204295,0.08832104938387382,-2.102315816189569,2.59972736690175,0.6869149515915248,-1.8926611737733525,-0.9285181006075449
17.448020696640015,8.572077459654551,5.883979616555267,2.392897582899198,0.21281052862130231,-2.57803343510141,0.10137695980967562,-2.0915069704053444,2.61996654966186,0.6191767580175397,-1.9085328506711137,-0.7935838448880572
17.46796417236328,8.574964330039268,5.8582513004295755,2.394299349659748,0.21667163676399576,-2.554254096833397,0.11716561019218595,-2.038434007263806,2.5552772201015186,0.5544152959320919,-1.9399487772070116,-1.5707963267948966
17.487820863723755,8.581180093336057,5.782908773399518,2.3984339308752434,0.1728599688049806,-2.4737870598000917,0.14367128930357065,-2.0652972403979373,2.479512607791163,0.48860384151279057,-1.9713647037429096,-1.5707963267948966
17.50788712501526,8.584222438058665,5.733923904037714,2.4014008443104733,0.1312846840904092,-2.424951064414507,0.15281094211326318,-2.092242583538871,2.404156493445849,0.42586920160948327,-2.0027806302788074,-1.5707963267948966
17.528417587280273,8.585873741984168,5.710178822060326,2.4032165553276683,0.12150561629156004,-2.3893455338035188,0.16395735236640316,-2.2501116503799707,2.4288239678672916,0.3668026232003586,-2.034196556814705,-1.5707963267948966
17.547861099243164,8.589688092866398,5.617374146797739,2.4104110217454,0.049594041251088496,-2.270819738470085,0.18636451100676457,-2.3807368739172925,2.5325424226857516,0.3063564544770897,-2.065612483350603,-1.5707963267948966
17.56796145439148,8.590195522049045,5.572470564093403,2.414195707898521,0.0007403184130933741,-2.219233392241042,0.19191288020958477,-2.5033073303479094,2.624089514356012,0.2489881705400669,-2.0970284098865006,-1.5707963267948966
17.587843894958496,8.590668628643506,5.550810778630048,2.4163016351197513,-0.0071907970647308705,-2.1818043522812864,0.19895284186650997,-2.4936454358721023,2.635200325576001,0.195826647400476,-2.1284443364223984,-1.5707963267948966
17.607908487319946,8.590026652127868,5.507702180624545,2.4203164547848885,-0.0569796634530582,-2.1290377857861884,0.2023613321706112,-2.485487199493121,2.640501812162831,0.14548791836368005,-2.159860262958296,-1.5707963267948966
17.628418922424316,8.590000407224348,5.486731142126373,2.4225804179647588,-0.06348944440178972,-2.097573363005321,0.21002325860403917,-2.5360749814955774,2.6158464315329235,0.09844652884038227,-2.191276189494194,-1.5707963267948966
17.647863388061523,8.586174658929075,5.405227345894975,2.4313830648097134,-0.14816629962222666,-1.9851356355928482,0.22120202047206788,-2.671244268045426,2.597616642178901,0.05118032840794863,-2.2226921160300916,-1.5707963267948966
17.667943954467773,8.582668441392787,5.366042754635482,2.4358143273027477,-0.20288150942605193,-1.9333966411385903,0.22177578714421273,-2.7990632039985472,2.5756732903593598,0.006646830524250258,-2.2541080425659894,-1.5707963267948966
17.68786096572876,8.58086726640838,5.347131595948608,2.4381310998058523,-0.2218511157452218,-1.8987069194715225,0.22420594904722224,-2.9754206924048696,2.62325753211511,-0.03380606380686948,-2.285523969101887,-1.5707963267948966
17.707889556884766,8.575823961202408,5.30968490192074,2.4426058844003182,-0.28303014708409896,-1.8458290706974145,0.22314588779569927,-3.14064737570361,2.6632846890503483,-0.07179375751595153,-2.316939895637785,-1.5707963267948966
17.728032112121582,8.573372170906413,5.291680151832621,2.444938897610505,-0.3001058252577165,-1.8098425224408907,0.22511720740873514,-3.268363556296774,2.701346723673091,-0.1062776568375325,-2.338507240216614,-1.078367228941457
17.74785590171814,8.559806191080154,5.22174799060484,2.454078570901211,-0.4069586385424236,-1.6936601569709426,0.2260866040761763,-3.50838399178676,2.8135777716453947,-0.13981795834889127,-2.369923166752512,-1.5707963267948966
17.767931699752808,8.550950220325099,5.188444186872989,2.458570216117708,-0.4793800124391721,-1.6363991264046012,0.2229736090910461,-3.730863323130493,2.909911941855511,-0.1711113644804045,-2.4013390932884096,-1.5707963267948966
17.78780198097229,8.546573402308516,5.172282936505007,2.4609349541736036,-0.5013056327127201,-1.6061142759760545,0.22516522236525702,-3.9450008106615204,2.883577885842288,-0.1996132534611381,-2.3936448823332346,0.3847105477587487
17.807974576950073,8.535744797812054,5.140735401531506,2.4653965386078225,-0.5822164944600896,-1.5487408992225151,0.2209050433683611,-4.143509926981379,2.8530768412324883,-0.2260673625306254,-2.4250608088691323,-1.5707963267948966
17.82790994644165,8.530485610850903,5.12533885303153,2.467779935371374,-0.6032695313394687,-1.5219175298412995,0.22369337048905527,-4.312919766684678,2.804535086843428,-0.25038700101614275,-2.432652825459749,-0.37960082953083507
17.848170280456543,8.504145715671134,5.066875529993901,2.4767902183458346,-0.747209675297394,-1.4050932407942658,0.21992300297434755,-4.494875931863848,2.787626772796338,-0.27358547480785866,-2.464068751995647,-1.5707963267948966
17.868030309677124,8.488291235260562,5.039329686310655,2.4811325088660157,-0.8387904853959179,-1.3495725112162689,0.21423497434864652,-4.66051825239521,2.7632156543762116,-0.29490864490477936,-2.4954846785315445,-1.5707963267948966
17.887908935546875,8.480240705923071,5.026188246996752,2.483380254451547,-0.8705304219297515,-1.315373166549439,0.2139243409024802,-4.793642858194968,2.8033284878388423,-0.38169266443017397,-2.5243261801282166,-1.4420750798336046
17.908055305480957,8.461863203799782,5.0004435601146895,2.4875769501188487,-0.9676163778654929,-1.2589992257611724,0.20547806883696246,-4.9126249597434475,2.8322226189040673,-0.46184249122309073,-2.5557421066641144,-1.5707963267948966
17.928370237350464,8.452511058824767,4.988192005108449,2.4897471942392806,-1.002097622214762,-1.225556034743275,0.20427936646624226,-5.0638103657195295,2.7957279554183305,-0.529396120558316,-2.5653003164579364,-0.4779104896911024
17.947802543640137,8.420706647643014,4.952783264175787,2.495863131459176,-1.1396235756920141,-1.1390915153846966,0.19489518169034545,-5.149552884814747,2.7706613617786027,-0.5231039544428141,-2.596716242993834,-1.5707963267948966
17.96809983253479,8.396879176321617,4.930553598243468,2.4996568585834567,-1.2433677229842595,-1.083978329995483,0.18450014980164398,-5.2228083884275485,2.739688928978679,-0.5163185375862156,-2.628132169529732,-1.5707963267948966
17.987911701202393,8.37149752105527,4.909544319309701,2.5035016585048226,-1.3358321964777586,-1.0269552880799355,0.18032568899968854,-5.293254278834529,2.626195723588544,-0.5096647412196288,-2.6595480960656297,-1.5707963267948966
18.007867336273193,8.34371810390488,4.889522910894434,2.507006706240398,-1.4423062089547831,-0.9755622168331236,0.17020281026536313,-5.352266410597365,2.5131974136657322,-0.5025473208079437,-2.6909640226015275,-1.5707963267948966
18.028376817703247,8.329189074576085,4.88007970205866,2.5087701437697745,-1.4917885839530056,-0.9453677375092123,0.17005656742092953,-5.378064118773844,2.4508188802954036,-0.1869067418977637,-2.722379949137425,-1.5707963267948966
18.047842025756836,8.265243977308714,4.844806550336389,2.5150488103164115,-1.7066010567396737,-0.8339718421826692,0.1514595199224195,-5.325095169934502,2.3057392459666186,-0.26884576181884406,-2.753795875673323,-1.5707963267948966
18.06793737411499,8.230050628117505,4.828578873458505,2.5180190768418047,-1.8125467037836596,-0.789260554364861,0.14531445809639723,-5.268949469371277,2.1663248377618385,-0.34465063187425254,-2.7852118022092207,-1.5707963267948966
18.087978839874268,8.211411256838783,4.821209131281822,2.5191865553223534,-1.872636525512948,-0.7563998248459204,0.13384058115098083,-5.258375974534888,2.088129530386271,-0.40627802945156644,-2.8166277287451185,-1.5707963267948966
18.107999801635742,8.172907923848634,4.806493635890399,2.521778258594449,-1.9776371139033446,-0.7154044931545648,0.12514131155241803,-5.240481925580171,2.0116955432230235,-0.4628105313586272,-2.848043655281016,-1.5707963267948966
18.128076553344727,8.152486182922127,4.799934638529753,2.522862718227106,-2.040488778586252,-0.6815804088892607,0.11607861673257813,-5.178956590683224,1.9949146892833844,-0.5080748673444846,-2.879459581816914,-1.5707963267948966
18.14785408973694,8.06610557307712,4.774835549723335,2.5269918344924878,-2.2622681411799954,-0.5888978261910308,0.09272132120144347,-5.085547163144599,1.9354186553787296,-0.5429060307668649,-2.9108755083528117,-1.5707963267948966
18.167930364608765,8.019849434643003,4.763440773565153,2.5287355407183196,-2.3630272862495065,-0.5507739133757621,0.08154535791315036,-4.990024189141155,1.8771813115211857,-0.5740907018680321,-2.9422914348887095,-1.5707963267948966
18.187860250473022,7.995564370814756,4.7582210662509645,2.529415603422903,-2.4238273939131907,-0.5268067686949066,0.07246778674418795,-4.902118398218183,1.8567000860670304,-0.5971807604738306,-2.9737073614246072,-1.5707963267948966
18.20800518989563,7.946113374462624,4.748054888935417,2.530744134429645,-2.5209716178926036,-0.4898803303086925,0.06031835898340447,-4.811933195581478,1.8358900755516805,-0.6172686423868472,-3.005123287960505,-1.5707963267948966
18.22793483734131,7.920144111528413,4.743414503585768,2.5311874969696357,-2.582962420407776,-0.46712481387976956,0.0502340918167235,-4.696584320741385,1.8118804282255812,-0.6304182509844506,-3.0365392144964027,-1.5707963267948966
18.247857332229614,7.812142758960102,4.726337575976845,2.532442772203967,-2.792352640958418,-0.39223193135736856,0.018572691055440755,-4.526297901363258,1.6625836372469096,-0.6342780098161139,-3.0679551410323005,-1.5707963267948966
18.26796317100525,7.7554016686857485,4.718815981596823,2.532687206418743,-2.8811974546037393,-0.3603932230549279,0.005864058443272997,-4.358618435454428,1.5228650046002625,-0.6362805745994864,-3.086531026333225,-0.9287942650462178
18.2878475189209,7.725814789585746,4.715379549559619,2.5325011712417598,-2.9390101243047297,-0.34423238378186916,-0.006644032954155932,-4.1601171820337335,1.3058175584926057,-0.6332055461141142,-3.1179469528691226,-1.5707963267948966
18.307836771011353,7.666215607958713,4.70874236488359,2.5322419258144007,-3.0202589721414626,-0.3201584525012768,-0.01926552609475504,-3.9653971786713074,1.1041010131229176,-0.628711244427956,3.1338224277745663,-1.5707963267948966
18.328020572662354,7.635103473117028,4.705929659565245,2.531761204720845,-3.078537794987755,-0.30086978279163584,-0.03292266105990261,-3.7726684737120255,0.9269013066909023,-0.6197862849094021,3.109209573389834,-1.2306427192366076
18.347956657409668,7.507683259182096,4.695536889881101,2.5294772838183923,-3.257774459619005,-0.2422655779211322,-0.06943403988270348,-3.4640295665599976,0.8398108272372338,-0.6025732299006393,3.0777936468539364,-1.5707963267948966
18.368026971817017,7.441854927588955,4.690854172573353,2.527969259978156,-3.324070631402118,-0.22626735525766523,-0.08130937506886916,-3.1676054939234817,0.7614461957979571,-0.5848829476386359,3.069723789934619,-0.4034928459659026
18.387850999832153,7.40773755822033,4.689060406115697,2.5268089255253177,-3.374260178891284,-0.2078021448226074,-0.09564624759988662,-2.931170528894323,0.6281128513485899,-0.5091134748179518,3.038307863398721,-1.5707963267948966
18.407931089401245,7.339681548543382,4.685021749503458,2.524799037366287,-3.430574927422164,-0.19646461228227147,-0.10510275396518001,-2.7014109220835874,0.5077783880976654,-0.4371678493631903,3.02989322665635,-0.42073183711854867
18.428058624267578,7.304289480006982,4.6834618869634905,2.5233343916214106,-3.4830983391618657,-0.1804936285167487,-0.12063313753714898,-2.5343890012822525,0.5460738802060513,-0.4254552622610267,2.9984773001204523,-1.5707963267948966
18.447871446609497,7.1614680770175525,4.677098119665039,2.517568462247968,-3.6175254888613027,-0.14862349323785476,-0.14995985779523427,-2.2373047535249997,0.6094573453291582,-0.16329092703996195,2.9670613735845546,-1.5707963267948966
18.46800708770752,7.088689278560267,4.67425176266479,2.5145531053733974,-3.6594061904280255,-0.13580122778856432,-0.15076701303040418,-1.952850909596705,0.672750278358065,0.0793617143472946,2.9468901455050975,-1.0085614039728519
18.48788595199585,7.051275730268395,4.672935801904845,2.5126847205927674,-3.6980698707190696,-0.12857674619128348,-0.16058393680289992,-1.7942802929916681,0.7541768041410003,0.049132009527458054,2.9154742189692,-1.5707963267948966
18.507966995239258,6.976965797125098,4.670520348900414,2.5094809700139287,-3.7324115751881597,-0.11270922911422045,-0.15988410984487622,-1.6407184696366757,0.8319753708186503,0.021234383902533755,2.897685450772758,-0.8894384098220964
