t,x,y,z,vx,vy,vz,ax,ay,az,yaw,yaw_dot
2.658240556716919,-1.9873815302104242e-05,8.939000119567474e-06,2.008016764182812,-0.0029603596698597094,0.0013319230872835118,0.002511284413438548,-0.2919034413930541,0.1314112215755264,0.24785577239986678,0.031415926535897754,1.5707963267948966
2.6782121658325195,-7.824705784030874e-05,3.470073352706763e-05,2.0080760565769435,-0.008769884342514887,0.0038668309279413075,0.007695954634837635,-0.5797519905235214,0.25291885081128695,0.47411631820252303,0.06283185307179551,1.5707963267948966
2.6982929706573486,-0.000387519428518589,0.00017020672236997276,2.0083389522065875,-0.023032763627999712,0.010054583981287071,0.019285963656285484,-0.8423857100555621,0.36416790006746774,0.6818302739214488,0.09424777960769326,1.5707963267948966
2.7182364463806152,-0.0002038948166168183,8.963372870387681e-05,2.0082992353299707,-0.01986987326366653,0.008543482299001462,0.019974446042838646,-1.073903308428155,0.4520027106100163,0.8741074080343361,0.12566370614359101,1.5707963267948966
2.738332986831665,-0.0008303730341873549,0.0003563377564809017,2.0088854947311106,-0.043474312404589696,0.018391681965104437,0.03923464781786955,-1.2828220690593422,0.5314347472432794,1.0490605555058716,0.15707963267948877,1.5707963267948966
2.7582809925079346,-0.0004401575083932467,0.00020084983383568218,2.008860920250774,-0.0323363406856678,0.013647255707956827,0.037848838811130235,-1.4645613280479126,0.5759168060124575,1.204381353356586,0.18849555921538652,1.5707963267948966
2.778292655944824,-0.001390900130721705,0.0005916645316475883,2.00986834359795,-0.0632764685281907,0.02556394115370017,0.06335911697881873,-1.6261341808144656,0.6148374535192687,1.344074144910208,0.21991148575128427,1.5707963267948966
2.7982614040374756,-0.0013801132975607875,0.0006604130523738267,2.010667367673104,-0.05785602914561499,0.0251123777544256,0.07365772228421635,-1.8259084499011067,0.7293785809945919,1.5013000542577273,0.25132741228718203,1.5707963267948966
2.8181755542755127,-0.0030322561457314856,0.001455229271654172,2.013161539283771,-0.08859971763582694,0.039919342254534564,0.10675712109668416,-2.0051804493631957,0.8594271400071277,1.3859626081258436,0.2827433388230798,1.5707963267948966
2.8382747173309326,-0.0052160675123068935,0.0024335573220277597,2.015566402455981,-0.13030124888532876,0.05830615558257232,0.13335919707019403,-2.1611399459493614,0.9772399976074874,1.2749616793372083,0.31415926535897754,1.5707963267948966
2.858283281326294,-0.00587969843997771,0.00278654003565309,2.016823870568834,-0.130088690623837,0.06098995627722982,0.14181304227167302,-2.064573707290846,1.0866340762620523,1.1735872972153139,0.3455751918948753,1.5707963267948966
2.878396987915039,-0.008887867866438576,0.004230390491253086,2.019888282390562,-0.17040097776149798,0.08372197277181032,0.16430298292684153,-1.9663928120696712,1.1847038561987069,1.0760391381130252,0.37699111843077304,1.5707963267948966
2.8982720375061035,-0.01182388631944846,0.005474368444222237,2.0236653591872997,-0.18922624202536675,0.08945255412510586,0.19283294315558672,-1.8933873527812608,1.0564364933716306,1.023937166765918,0.4084070449666708,1.5707963267948966
2.918280601501465,-0.015982136999808175,0.007466434212060175,2.0277233330211275,-0.2263498684267166,0.10934499129755151,0.2127908446812795,-1.8187012999126837,0.933725533529127,0.9718588948141671,0.43982297150256855,1.5707963267948966
2.9382164478302,-0.023543738098621248,0.01068712985005351,2.0350764354041946,-0.28280321409883413,0.12815198838952138,0.2537569451986466,-1.9026027544286612,0.806407782714949,1.0032037237698104,0.4712388980384663,1.5707963267948966
2.958357810974121,-0.029585196157062357,0.013403261688028186,2.0403539846688585,-0.32157442788288126,0.14305664251072353,0.2740812085017241,-1.9721600134553463,0.6850400664765619,1.0281747893018145,0.5026548245743641,1.5707963267948966
2.978245258331299,-0.033127546973964514,0.015052099693827443,2.0432787185986485,-0.34950553396666334,0.1507432588164106,0.2881999780323243,-2.1801474513596517,0.08337352003981116,1.058061670712332,0.4712388980384663,-1.5707963267948966
2.9982340335845947,-0.04884791996565185,0.022459777136119498,2.055708407784899,-0.4345864973146377,0.18251653734695303,0.33382728175046095,-2.0198692875319675,-0.645241741750056,1.3390269122942395,0.5026548245743641,1.5707963267948966
3.01829195022583,-0.0579329675097782,0.025935338690284797,2.062670145845738,-0.4733859533455359,0.16280048654830684,0.36319378455332624,-1.8601791233661733,-1.3170045167512774,1.5932160517386147,0.4712388980384663,-1.5707963267948966
3.038236141204834,-0.06282208442426053,0.028938967738326913,2.066171122654145,-0.4941707198139415,0.19540082879333956,0.37351479724377373,-1.8450378166591994,-0.865820057532429,1.671725392363387,0.5026548245743641,1.5707963267948966
3.058342218399048,-0.07307305702778848,0.032702242200112315,2.0739803696635954,-0.5308468715957197,0.18232046113147354,0.4076298860185343,-1.8211418540969617,-0.4476537342363125,1.737725457933305,0.4712388980384663,-1.5707963267948966
3.0783262252807617,-0.07889705121040864,0.03626746514572814,2.0776177714279944,-0.5633739318113533,0.2310468328645699,0.4101778905363558,-2.0556616788465503,0.14324085247515497,1.7098283972392785,0.5026548245743641,1.5707963267948966
3.0981602668762207,-0.09710149061405937,0.0433859652119127,2.0903802127552726,-0.6365951190797485,0.23866409292237,0.4531774994646688,-2.2116097560715953,0.4509071409464622,1.7172908567253782,0.5340707511102618,1.5707963267948966
3.118220806121826,-0.11028487771618502,0.04826856291234453,2.099787344011583,-0.6821814934894839,0.2505297864812044,0.4875356343177248,-2.3429922246421704,0.7311519444683403,1.717296664348243,0.5275710551421935,-0.324984798403416
3.138270854949951,-0.12448938212711422,0.05202582663911089,2.109476416417615,-0.7298046500623475,0.22721023450806033,0.513355684259678,-2.3149284893976576,0.6686950262093947,1.9612101302817393,0.5589869816780917,1.5707963267948966
3.1582748889923096,-0.13954580065811678,0.05669962062741921,2.120150667436565,-0.7756913047373063,0.2399619491580424,0.554791751824074,-2.2711685144840446,0.6065317511576747,2.1779222178756585,0.5275710551421939,-1.5707963267948966
3.178265333175659,-0.14732304079366126,0.058083378749982005,2.1254252551162116,-0.7979033314177327,0.21844273666328584,0.563221656245911,-2.507484626228896,0.7564083142878191,1.8796263237040909,0.5589869816780917,1.5707963267948966
3.1981706619262695,-0.18112347166433748,0.06662195047366282,2.1492327667966853,-0.894145907800815,0.2223620604516707,0.6324938456682283,-2.405319822824208,-0.16642483066681665,1.5939277550887703,0.5275710551421939,-1.5707963267948966
3.2182676792144775,-0.199480018796371,0.07097785092240376,2.1621831195130126,-0.9411268818225563,0.2103821943886418,0.6616380772693048,-2.2907508803283174,-1.0201897018335293,1.3229180460697774,0.5589869816780917,1.5707963267948966
3.2383081912994385,-0.20899355256214816,0.07341072588307031,2.169031218772991,-0.9604859270286522,0.20512610089602973,0.6775132773404952,-1.8714552035978373,-1.977993419166912,1.081930882438998,0.5275710551421939,-1.5707963267948966
3.2582526206970215,-0.22855020226353348,0.07705769993190119,2.182782444971479,-0.9938208834450314,0.1566380133766415,0.6968486131202117,-1.4640054409172987,-2.8580129283456843,0.8537075810583419,0.4961551286062962,-1.5707963267948966
3.2782208919525146,-0.24948820979754274,0.08315376828559781,2.19742446763991,-1.0392734273445474,0.18809577283346857,0.7245730107662903,-0.8187761991154714,-3.3030094260181917,0.6481108906385143,0.5275710551421939,1.5707963267948966
3.2981491088867188,-0.2822429066449534,0.09022465178234038,2.2194490873845845,-1.0967299321905721,0.17419204445898512,0.7425912826272593,-0.4821121864913481,-2.9651510104629115,0.4586761716493467,0.5589869816780917,1.5707963267948966
3.3183295726776123,-0.30425200045128054,0.09313694340459307,2.2343805511321437,-1.1030916509975,0.11809403192381755,0.7499589935157474,-0.15577114406395637,-2.648067761306377,0.2798427833019732,0.5275710551421939,-1.5707963267948966
3.3381733894348145,-0.328478996361855,0.09746397130815386,2.2495123247120463,-1.1570039803657262,0.11478847342074104,0.7560975795445475,0.15741675614491868,-3.4050360409313307,0.12407987320679288,0.4961551286062962,-1.5707963267948966
3.3582799434661865,-0.35156717398973897,0.09903163745196315,2.264649162789337,-1.1508004953228324,0.039678689362057006,0.757097240651097,0.46140403001215996,-4.0948998296829195,-0.022619682652079996,0.4647392020703984,-1.5707963267948966
3.3782284259796143,-0.36441535731202196,0.09992152372687987,2.27238419541679,-1.1827379473067212,0.012755735613954298,0.7608631697413993,0.6944219735459661,-4.851971481780935,-0.15092603828277365,0.4333232755345007,-1.5707963267948966
3.3981683254241943,-0.40099701876294674,0.0998669391853537,2.295632165532684,-1.1999849831612523,-0.08674626462534225,0.7691623548434426,0.9070608253720731,-5.440489553019973,-0.35033395304131193,0.4019073489986029,-1.5707963267948966
3.4183461666107178,-0.4248012061510452,0.09700775278751174,2.31093279067823,-1.1797300773104864,-0.20093008923698386,0.7602845384191103,1.1181620369204448,-5.967830538766112,-0.5350266380627933,0.37049142246270517,-1.5707963267948966
3.438209056854248,-0.4376661001602023,0.09670085485444031,2.319246260748549,-1.198136895239273,-0.20731678131336229,0.7747408501635061,1.3509572356246533,-6.432205762351689,-0.7387451197287315,0.3390754959268074,-1.5707963267948966
3.458289384841919,-0.461343331826256,0.09123987497071413,2.3345804804872916,-1.1688239781479892,-0.34014612259149446,0.7580507659678982,1.579644065001893,-6.841704938155689,-0.9278582832028563,0.30765956939090966,-1.5707963267948966
3.47829532623291,-0.4740542658260801,0.08983448259892383,2.343196427405892,-1.1831209389443207,-0.3452904092644707,0.7783859052137553,1.6887050304058338,-7.140744194682195,-1.0929512273916853,0.2762436428550119,-1.5707963267948966
3.4989116191864014,-0.5215868699150306,0.07332651641699194,2.3753077539040413,-1.15467499751843,-0.5574490606291744,0.780366648203576,1.498333353271469,-6.902635813460948,-1.0652501216156414,0.24482771631911415,-1.5707963267948966
3.5183568000793457,-0.5443922902001476,0.060813055160428904,2.390703766282936,-1.1264282661340468,-0.6930919154356515,0.7593191325077767,1.3299522918520137,-6.661094300385926,-1.0398863431714178,0.2134117897832164,-1.5707963267948966
3.538318157196045,-0.5559908099510308,0.054179898759262136,2.399070803272414,-1.122144306216574,-0.7428349076728743,0.7720349623062253,1.477968312412218,-6.523679158407741,-0.9893668696894317,0.18199586324731865,-1.5707963267948966
3.558244228363037,-0.578128460534236,0.03802826153000447,2.4143167789839257,-1.0911423993306517,-0.8718285900306901,0.7527165156465018,1.6214749763224034,-6.373619092184354,-0.9431930198206233,0.1505799367114209,-1.5707963267948966
3.578187942504883,-0.5994245943309402,0.01843063984426259,2.429665047858046,-1.052023565371203,-1.0219745206941775,0.7431815475626703,1.7877484661415841,-6.124137464999777,-1.0978847283254642,0.11916401017552314,-1.5707963267948966
3.598259925842285,-0.6200966481558842,-0.0032169091010734977,2.444299398625514,-1.0146420397023277,-1.1419397357856227,0.7197783877999093,1.949681924947381,-5.8719493215466905,-1.2404321302850563,0.08774808363962538,-1.5707963267948966
3.6182849407196045,-0.6300091154924318,-0.016104776233360697,2.4515752567610654,-0.9880935899841694,-1.2327353107885006,0.7104731081021353,2.3429228168129432,-5.639679656903112,-1.3569739376432064,0.05633215710372763,-1.5707963267948966
3.638139486312866,-0.6680761362846948,-0.07225342812694095,2.479305565826784,-0.9030734550028539,-1.5134942496975703,0.6648279168138925,2.6549425318325586,-5.314775955358301,-1.4502999704916337,0.024916230567829878,-1.5707963267948966
3.6583192348480225,-0.6855866517626645,-0.10356479743116975,2.4923062890103456,-0.8469936222498277,-1.6165723121280653,0.634962980118726,2.950289145583938,-4.993666072528183,-1.5347302294351703,-0.006499695968067876,-1.5707963267948966
3.6783359050750732,-0.6857726845668828,-0.1043571276506587,2.492347209852772,-0.8495094917466379,-1.6388893474841806,0.6352119787855308,3.240010906988289,-4.676680728392837,-1.602711661615186,-0.03791562250396563,-1.5707963267948966
3.698173761367798,-0.7184754128189621,-0.17665004089747596,2.5164653546117117,-0.7503248876773645,-1.8981805901713877,0.5693413052452174,3.472408332067241,-4.3932449205382476,-1.6472765786809547,-0.06933154903986338,-1.5707963267948966
3.718299627304077,-0.7327726390168744,-0.21547352412234932,2.527520064266775,-0.6786698243394624,-1.9832308560567047,0.5360016889855559,3.6907855071402538,-4.112183215507189,-1.685670802109518,-0.10074747557576114,-1.5707963267948966
3.7382054328918457,-0.7400056454054408,-0.2373332050355981,2.5324913060295824,-0.6572337846918038,-2.073743941640349,0.5098952512340357,3.94773760156014,-3.82320826428118,-1.7069280131650628,-0.1321634021116589,-1.5707963267948966
3.7583281993865967,-0.7523445141700144,-0.27955365092309353,2.5423466498131693,-0.5758544557667137,-2.147350104853613,0.47558430544908925,4.187334799471677,-3.5380461039596662,-1.7233768522789794,-0.16357932864755664,-1.5707963267948966
3.778294563293457,-0.7585851718012665,-0.30317933995652485,2.546613958806008,-0.5530603762471998,-2.238513904963122,0.44669689627505066,4.223832164731252,-3.5136380759868278,-1.7249374570596134,-0.1949952551834544,-1.5707963267948966
3.798121690750122,-0.7739440823663606,-0.37380786835634355,2.558826471307778,-0.44595298257155463,-2.397325726621316,0.38334363599680543,4.0710519418186175,-3.557122442745949,-1.7104009014232924,-0.22641118171935215,-1.5707963267948966
3.818403959274292,-0.7820586028757784,-0.42246763164542817,2.566152361826143,-0.3659741829380991,-2.468724203096093,0.3493024214703362,3.9285132293373284,-3.5792134457624036,-1.6933006962193795,-0.2578271082552499,-1.5707963267948966
3.838229179382324,-0.7887396264476476,-0.4744658594568467,2.5722768034969374,-0.28717661629945446,-2.5791600347646138,0.3028066035376449,4.102377905512352,-2.7998902260002847,-1.661685103245423,-0.28924303479114766,-1.5707963267948966
3.8582870960235596,-0.7936516665708726,-0.5265590078673319,2.578002777003173,-0.2034860471917071,-2.6276850156844636,0.26990082037367,4.2647858079047705,-2.058940447812834,-1.6286641495535652,-0.3206589613270454,-1.5707963267948966
3.878298044204712,-0.7951743623073978,-0.5540717920097321,2.580262101126059,-0.15110041116004352,-2.6727812826307797,0.24345819049513262,4.42347795279859,-1.0103084973092251,-1.5886224830274394,-0.35207488786294316,-1.5707963267948966
3.8985748291015625,-0.79776915118571,-0.6656090657735205,2.5877578678975217,0.0251991323835096,-2.7999405999417033,0.15441054934033874,4.770793532142014,0.1469015685313335,-1.5302065003525787,-0.3834908143988409,-1.5707963267948966
3.918398380279541,-0.7962892269929409,-0.7215054638953408,2.590543906736206,0.12385983686214644,-2.7861151792732035,0.12438636368647694,5.0907681320083915,1.222144496171583,-1.4722980285153657,-0.41490674093473867,-1.5707963267948966
3.938265800476074,-0.7952653213558931,-0.7521687208666067,2.5908319988376873,0.1583155947801554,-2.850083865332117,0.08511465022474304,4.778129395103954,1.9983557288869684,-1.4081560578020942,-0.4463226674706364,-1.5707963267948966
3.958449125289917,-0.7911630378081749,-0.808721572734469,2.592256882832056,0.25094953824544425,-2.8027862753318384,0.057583959596764864,4.4891514834673085,2.7228893720694254,-1.3450929731751102,-0.4777385940065342,-1.5707963267948966
3.978321075439453,-0.788943229068714,-0.8405947755670866,2.5919628848645964,0.2835451321840796,-2.87687632480245,0.02193677568620627,4.6430050800373746,4.1225711107169625,-1.277859594387087,-0.5091545205424319,-1.5707963267948966
3.9981579780578613,-0.7783297357685942,-0.929692215223909,2.5911016153549857,0.42605975937920015,-2.884969099332422,-0.0430711821921077,4.984255126246499,4.281416183205457,-1.2010375644270324,-0.5405704470783297,-1.5707963267948966
4.018237113952637,-0.7687905850771956,-0.9865254128488296,2.590004993712935,0.5288834844113096,-2.7978669283848294,-0.06634235952177256,5.292721062158638,4.4265421702260985,-1.1264503614259467,-0.5719863736142274,-1.5707963267948966
4.038220405578613,-0.7573480506586324,-1.0473324695137516,2.587250909879785,0.6298279774066459,-2.848480748541573,-0.11656799399906899,5.433308226346472,4.308475428937703,-1.0463770216677093,-0.6034023001501252,-1.5707963267948966
4.058231353759766,-0.7436562019075796,-1.1034479127281862,2.5847154771525855,0.7397760069423224,-2.7634340231194026,-0.13671739333866487,5.559046280432544,4.197337476725828,-0.9690107367277734,-0.634818226686023,-1.5707963267948966
4.078326940536499,-0.7364202662071457,-1.1329669416654848,2.583106092182624,0.7790380948597337,-2.7814709842579375,-0.15024774847296937,5.115737245982435,3.785781904353428,-0.8963113257805534,-0.6662341532219207,-1.5707963267948966
4.098242521286011,-0.7109998240366728,-1.2150583177246554,2.5784268985985697,0.923363896982125,-2.6780275102586506,-0.16904248491115376,4.704970651218434,3.376144116960133,-0.8262010076557715,-0.6637157480940705,0.1259202563925088
4.11828351020813,-0.6916177196766828,-1.267969670709991,2.574885359337801,1.0135581694809976,-2.614388342184431,-0.1848859481691807,4.318450327116234,2.9919683403973947,-0.7585524816473148,-0.6374485203863602,1.3133613853855142
4.13819694519043,-0.6696751387308547,-1.318057322828777,2.57166441265185,1.1222895445673888,-2.511723382967579,-0.1845001980246469,4.1643747995949765,2.8530731537701643,-0.6984197912516943,-0.606032593850462,1.5707963267948966
4.158442974090576,-0.6328045001826492,-1.3903828035353862,2.5660236892119332,1.286548722727243,-2.3782871362826787,-0.19918066886003707,4.249898339646832,2.588373581931727,-0.6406463949495877,-0.5746166673145643,1.5707963267948966
4.178235054016113,-0.6054334309697647,-1.4363603474938411,2.561986737871379,1.3964781969948534,-2.2910753154062915,-0.20916554233569493,4.0870875801399,2.5270709594089285,-0.5861762459729508,-0.5847432148750862,-0.5063273780260946
4.198237895965576,-0.5766971530200444,-1.4816804524296479,2.5576897282057547,1.4766169276865968,-2.2411345951748904,-0.220360171660171,3.9272863470202277,2.4672455092955814,-0.5336000103168794,-0.5553715154902865,1.4685849692399833
4.21820855140686,-0.5605193817554103,-1.5020479464833296,2.5553028607231756,1.548600669813853,-2.16230306682665,-0.2307432315784997,3.761696287166161,2.4338370276585435,-0.4844761319667882,-0.5867874420261847,-1.5707963267948966
4.238194704055786,-0.528805901528609,-1.5448094971885424,2.550594288899613,1.6222065059088822,-2.113965321661616,-0.23995598535181137,3.599441931673331,2.399842109584362,-0.43708607623026186,-0.5647667522601636,1.1010344883010559
4.258296251296997,-0.5113052387119313,-1.5640502725154675,2.5476476951245934,1.687714641366485,-2.040041459159825,-0.25956232100031035,3.464224343234653,2.363709291321488,-0.39042628535236074,-0.5958224435968478,-1.5527845668342088
4.27830958366394,-0.4763012112443226,-1.6034845772638469,2.5419621533825176,1.7748578310709606,-1.9633909065192356,-0.280770389363774,3.3827476972395365,2.325614907928304,-0.3431272152834512,-0.5644065170609496,1.5707963267948966
4.298213958740234,-0.4013508856509602,-1.6780650526785184,2.529521550119977,1.9388550961720217,-1.8198123684040555,-0.31648794704291583,3.1709642592719445,2.2066824022401796,-0.2916025396785874,-0.5329905905250518,1.5707963267948966
4.318267345428467,-0.3619533408456821,-1.7140275308366486,2.52313679440677,2.0002179792906567,-1.776807862333335,-0.3218232733217609,2.9665407479084585,2.0949551366199155,-0.24229659685243365,-0.5015746639891541,1.5707963267948966
4.338268280029297,-0.3410297798071832,-1.7304137563604893,2.519668656859011,2.0506842053742935,-1.7207310372763738,-0.3302220743208196,2.7985821994531306,1.9286010074475122,-0.19746599765366785,-0.4701587374532563,1.5707963267948966
4.358504772186279,-0.29946724989065443,-1.7644532799606554,2.51302761256954,2.105030642014974,-1.6837447846069924,-0.33373945721141374,2.6371368989768005,1.7715589897665716,-0.15459619384936155,-0.4392748181742663,1.5441959639495018
4.378266334533691,-0.2773167083388101,-1.7798012597903576,2.5094870108508043,2.1567961580077526,-1.6289451163957396,-0.3405847289632473,2.383909754989348,1.4116584075716812,-0.11598625934588061,-0.4459666491248666,-0.3345915475300165
4.3981451988220215,-0.21044792595681475,-1.8263325937168415,2.4989754825037265,2.258722072002305,-1.5379393184609953,-0.35058567690512255,2.2895386185678137,1.363529090344799,-0.0787465228246354,-0.4145829117123734,1.5691868706246614
4.418268918991089,-0.164821736884105,-1.8568217821466018,2.4919504176238694,2.303591000815717,-1.5111332581403245,-0.3518023104056986,2.197787615438532,1.3174083282311686,-0.043195817350674855,-0.4138949797591085,0.03439659766324432
4.438253879547119,-0.11690958993959935,-1.884328688872823,2.4847305127666632,2.3803509793821482,-1.4255472953576984,-0.3536081831617025,2.0343107074886446,1.1988577238044578,0.30012497745747385,-0.38260693262902423,1.564402356504213
4.458483695983887,-0.0689062771448579,-1.9126074066846506,2.477739947791014,2.419457290283115,-1.4026957369997783,-0.34439124676083077,1.8774057779446434,1.0874795835568436,0.6172556760639437,-0.3830869362786262,-0.024000182480099497
4.478322744369507,-0.043898961913751394,-1.9252742257667108,2.474182141779928,2.457211006209281,-1.3554589025837174,-0.342204181072243,1.723763337876286,1.0373566752645984,0.6459455863475986,-0.35583008485077317,1.3628425713926529
4.4981958866119385,0.05691268753615427,-1.9769499826476604,2.4606329017348774,2.5521997463786286,-1.2712745878096459,-0.3242092471064388,1.4860873380934647,1.160185314760375,0.6707039652279229,-0.3244141583148754,1.5707963267948966
4.51833176612854,0.108238625030902,-2.0021356866809934,2.4542843682851716,2.579639657806855,-1.2469154866741554,-0.31057085979705895,1.259780041965545,1.2742873700062767,0.6926766124057762,-0.3173983144858834,0.3507921914496004
4.538219690322876,0.13472722698585898,-2.0138422509922527,2.4512888780486515,2.6088908456504596,-1.2156509879041522,-0.30097212244764737,1.1149578906038378,1.190166337058136,0.7093402280226085,-0.34180055817824684,-1.2201121846181717
4.558276891708374,0.18711869544846213,-2.0379226594672972,2.4454122958557596,2.629794190424176,-1.1926578896310365,-0.28663843460004784,0.9764128506253696,1.1097561679114982,0.7236399807029389,-0.32732151183905067,0.7239523169598083
4.5783140659332275,0.23990093431981235,-2.061559044099574,2.4398250930201657,2.64798841337486,-1.1712364660670576,-0.27204185021603844,0.8440258655547532,1.0329872668600835,0.735640683906973,-0.3250986720217597,0.11114199086454946
4.5983757972717285,0.26793302558435245,-2.0724560695797067,2.4375265292181525,2.687585651446945,-1.1460283099954611,-0.2559688954072278,0.7175258896672702,0.8212115025969744,0.7403287817753071,-0.3445910133488357,-0.9746170663538001
4.618194103240967,0.32182010719011905,-2.095225690942902,2.4325554444764896,2.7007205712340596,-1.1315852035724348,-0.2411296037476661,0.5969426003446641,0.6257916297347449,0.7433221252201129,-0.33659533460741287,0.3997839370711409
4.638255834579468,0.4317400307535912,-2.138403653333141,2.424261469033658,2.749953214934115,-1.0742120697610598,-0.1958148864292611,0.5073570661815704,0.567860249780887,0.7357273430487277,-0.33696467256419416,-0.018466897839064522
4.658214807510376,0.48683477992852364,-2.1597779117524554,2.420491762977658,2.7592354415893716,-1.0633887419158154,-0.18118418468296638,0.4214776477422188,0.5153669378334984,0.7271882501077339,-0.33557807866071876,0.06932969517376986
4.6782386302948,0.5146189895730259,-2.1698990508836484,2.4190502419611173,2.7671870870252264,-1.044846012925463,-0.16313438781958367,0.32360395641415857,0.5033782996285873,0.8750038384635114,-0.304162152124821,1.5707963267948966
4.698222398757935,0.570103756890411,-2.1905045721880088,2.416107302254103,2.775721412357683,-1.0281651086302666,-0.14125394834797114,0.2686955044277105,0.5611168675552033,0.8427369735292533,-0.27274622558892325,1.5707963267948966
4.718246221542358,0.625668363191412,-2.2109519609613564,2.413448639659434,2.780562808606173,-1.0163918903473228,-0.12471852505634684,0.21577220946646164,0.6156814764768852,0.8108728697487408,-0.2413302990530255,1.5707963267948966
4.738229513168335,0.681384978576016,-2.231115140675747,2.4113127737438154,2.7854656665977995,-1.0050213482319026,-0.10411329147884392,0.16188861475840863,0.5408329028881574,0.7771074594910621,-0.2216758195246431,0.9827239764191198
4.758268356323242,0.7371231756702192,-2.251112156143988,2.409383708341234,2.7881809681108383,-0.9949140874544589,-0.08890380291184584,0.1099656735337331,0.47066450425281,0.7439412103086023,-0.22027238826637685,0.07017156291331261
4.778284072875977,0.7649150333004819,-2.261237812109943,2.408632386112592,2.7859222495284923,-0.996778847191269,-0.0786642875127078,0.06336445822214297,0.3658261141926333,0.711312561654458,-0.21389699549826258,0.3187696384057137
4.798251390457153,0.8483651609218786,-2.291034747197801,2.4068461525214846,2.7825252896111805,-0.987413262780023,-0.050208692404468,-0.015463233961622575,0.34246774887827197,0.6754006775187209,-0.18248106896236482,1.5707963267948966
4.818301677703857,0.9040074965701792,-2.3107159691971226,2.4059747096872575,2.7814573320393854,-0.9807796947720567,-0.03705230102551596,-0.09074725684449014,0.3212395583583497,0.6403875316527118,-0.18255919791272746,-0.003906447518131628
4.8382568359375,0.9592895678831915,-2.3302809157894937,2.4057840305983094,2.7710468675402766,-0.9748015757154447,-0.013930976267329252,-0.13892602893256903,0.31476176477140116,0.6029388679313191,-0.1688137139412298,0.6872741985748831
4.858505964279175,1.0146796248234802,-2.349714373409755,2.405623558237668,2.7678059909140784,-0.9685622328131714,-0.0022373641591987782,-0.18477744150491124,0.309347329595276,0.5666073169674861,-0.16424476529904997,0.22844743210899132
4.878223180770874,1.0421298639659182,-2.359450005973265,2.405889915743906,2.759047394780435,-0.9665499949311614,0.010479362070248521,-0.2550429999822235,0.4345266553677267,0.5305430741345104,-0.1534003897141596,0.5422187792445188
4.89815616607666,1.124587999360116,-2.388517336038172,2.4067108170197784,2.745021030433035,-0.961518155554609,0.0337020370454292,-0.3389282349614737,0.4522500339720454,0.4921786772995584,-0.14081657054519825,0.629190958448067
4.918304204940796,1.1794153135773948,-2.4076561034520907,2.4074808043571285,2.7374488245157784,-0.9523018928360755,0.043173371136500584,-0.4174002956104235,0.46925816058595216,0.45518064919476187,-0.13443575080097592,0.3190409872111166
4.938188076019287,1.233783168278278,-2.427255476151954,2.4088523784171447,2.720977510354736,-0.9578328566039456,0.062497856060320954,-0.5182777655152733,0.6491527054528472,0.4167685315530577,-0.12316033943990101,0.5637705680537453
4.958404779434204,1.2880926340927077,-2.4462708472264514,2.410183203795358,2.7096525103990565,-0.9431403223372755,0.07046165327128456,-0.6132480409338431,0.818335226533496,0.37985955261413484,-0.11466095395496367,0.4249692742468669
4.9783103466033936,1.3150174173318185,-2.456207012654979,2.411195417949148,2.698788032437424,-0.9497976059018527,0.0821498495360709,-0.701462559485411,0.9358095310078914,0.34359980886396074,-0.1052457165128513,0.4707618721056184
4.998157262802124,1.422348168781331,-2.4946357402009784,2.4151920475637367,2.668032640091453,-0.9421054230727787,0.1062282162914076,-0.8322024362950752,0.9037503265934804,0.30405285032135193,-0.0851636137696472,1.004105137160205
5.018303871154785,1.4755341065794114,-2.5132989293170813,2.417374875304619,2.6501546771141626,-0.9243000003005144,0.11192867281055369,-0.9541446261956003,0.8777937339632175,0.266286788635758,-0.07870581675838162,0.32288985056327935
5.038290977478027,1.5019449547470556,-2.523117535025492,2.418725439309082,2.6388154428423714,-0.9336250414310794,0.12040746268978839,-1.028926861759949,0.7772235946400736,0.2301440408338667,-0.069639360228134,0.4533228265123812
5.058300971984863,1.5545107292122027,-2.541640716215832,2.4211772931873417,2.6175284451808842,-0.9189898180880272,0.12466312277630423,-1.0989961578804137,0.6881961796358012,0.1957027788741499,-0.05888737382087594,0.5375993203629026
5.07833194732666,1.5807047307747648,-2.5511347189863494,2.4226546337554247,2.6080974275082687,-0.9213286201064719,0.13260248021779003,-1.1522360168351824,0.6815475510375876,0.162676687954767,-0.048225656530714645,0.5330858645080649
5.0983970165252686,1.6326328608987244,-2.5694251918389766,2.42533709870706,2.5845499558804277,-0.9077253446283685,0.13553936280742437,-1.2019260228253674,0.6795412089240768,0.13128050256828613,-0.0378850970087834,0.5170279760965624
5.118273496627808,1.684197811568447,-2.5875562642932386,2.428416678691352,2.5625741309478323,-0.8962969675612127,0.14637048124590882,-1.2680930276796036,0.7299089183535917,0.09990340064869305,-0.01836083841698155,0.9762129295900923
5.1382341384887695,1.7605200904044396,-2.614212692370417,2.4330495388956472,2.524126216384913,-0.8775370754506283,0.15466551201717688,-1.3618396442998808,0.7068401402129952,0.06847989826833817,-0.0009631583449936088,0.8698840035993971
5.1586127281188965,1.810724395467121,-2.63162328751326,2.436154536133468,2.496018272226733,-0.863578342403389,0.15573517791230362,-1.4476482347606527,0.6900657781735544,0.03876914093663267,0.007256252579077582,0.41097054620355955
5.178426742553711,1.835612263266362,-2.640365508530887,2.43787710052605,2.481059735908477,-0.8605692537515973,0.1604932903831762,-1.5064911833105659,0.7086481349569902,0.010855604844471397,0.01931139989499453,0.6027573657958474
5.1982433795928955,1.9094441679565837,-2.6659902521758134,2.442862031413005,2.4375469094063043,-0.8420512411859921,0.16525859875324303,-1.5689931296745518,0.8155562379084411,-0.016670976038396512,0.0404135066918645,1.0551053398434984
5.218257427215576,1.9578774318504113,-2.6826612556316323,2.446162116111959,2.4055904835388153,-0.824707185410766,0.16466356761732984,-1.6256944065007934,0.9181330522611739,-0.04256262944557475,0.04809654264218732,0.38415179751614126
5.238206386566162,2.005745546360057,-2.699255962758908,2.449650314049327,2.374286513144356,-0.8135346286956882,0.16862436487745222,-1.7189772073616667,0.9629514293712829,-0.06724050679921936,0.06703360002828429,0.9468528693048484
5.258295774459839,2.052881685304728,-2.7153310627197405,2.453007786185649,2.3390445412038394,-0.7938250311404531,0.1670457818173914,-1.8038326951401746,1.0080515581829361,-0.09036116914769914,0.07633830040439404,0.4652350188054877
5.2782299518585205,2.0762363420882357,-2.7234822385011266,2.454789104383611,2.3219955569244073,-0.7906483894750136,0.16920738787620426,-1.8678099087461983,1.076339224348592,-0.11165678515373548,0.08893107627328511,0.6296387934445535
5.298200607299805,2.1677844766590266,-2.75468206954613,2.4616391203506023,2.250651162177583,-0.7577865858004962,0.1687223895430894,-1.9221255524524552,1.1373925676992682,-0.13240460282294375,0.11897369132381597,1.5021307525265426
5.318221807479858,2.2124097256307587,-2.769606364013385,2.464985776676644,2.211710748738679,-0.734446769050573,0.1658789110163626,-1.9710235733356487,1.1962206067277865,-0.15170477633915855,0.12401841999268104,0.25223643344325364
5.33812141418457,2.19021345030291,-2.7623037230837832,2.463352882010777,0.0,0.0,0.0,0.0,0.0,0.0,0.12401841999268104,0.0
5.358112573623657,2.19021345030291,-2.7623037230837832,2.463352882010777,0.0,0.0,0.0,0.0,0.0,0.0,0.12401841999268104,0.0
5.378149509429932,2.19021345030291,-2.7623037230837832,2.463352882010777,0.0,0.0,0.0,0.0,0.0,0.0,0.12401841999268104,0.0
5.3981053829193115,2.19021345030291,-2.7623037230837832,2.463352882010777,0.0,0.0,0.0,0.0,0.0,0.0,0.12401841999268104,0.0
5.4180567264556885,2.19021345030291,-2.7623037230837832,2.463352882010777,0.0,0.0,0.0,0.0,0.0,0.0,0.12401841999268104,0.0
5.43820595741272,2.440342270805697,-2.843805041045334,2.4836681815760397,1.934950843511022,-0.607810282460001,0.17075824331941272,-0.30147532730253906,0.22340716267797855,-0.03801434145347323,0.09260249345678329,-1.5707963267948966
5.458374738693237,2.478961883173146,-2.8559021675838046,2.487073330482476,1.9260711982860674,-0.6011906732772668,0.1696379872263127,-0.5832411932790502,0.43691958640248996,-0.07361328801298266,0.06118656692088553,-1.5707963267948966
5.478298187255859,2.4921294687645648,-2.859527908709263,2.488189411010635,1.7437718838462568,-0.5274840149070195,0.14982024471145372,-0.7685354989364741,0.6720997165632414,-0.10018410378710564,0.02977064038498778,-1.5707963267948966
5.498247146606445,2.537695487898473,-2.8732179745074173,2.491311008699125,1.534996132353848,-0.45425043238088675,0.10876993661417948,-0.9638461652570535,0.9243959434531077,-0.11473878756496221,-0.0016452861509099748,-1.5707963267948966
5.518311262130737,2.5681904703366385,-2.882102061092196,2.4934625441343354,1.5139075335561776,-0.4333688706294346,0.10633873070622349,-1.1422264264400572,1.161208331667933,-0.12820208340517902,-0.03306121268680773,-1.5707963267948966
5.538215398788452,2.5877072878144265,-2.8895963560236955,2.4939354830400964,1.2263137685667633,-0.39253139190198194,0.06375797194064695,-1.2879371731175073,1.2562146580673126,-0.12949344027338727,-0.04252064672626066,-0.4729717019726465
5.558313369750977,2.6119670106087067,-2.8971897439465346,2.49518467227388,1.1992225580362863,-0.3665130919470288,0.06115761469864721,-1.418729410342304,1.34450978464948,-0.13049459814187692,-0.02794685670173802,0.7286895012261319
5.578278541564941,2.6173072067673497,-2.9018562389494824,2.4945151343443386,0.9980213025655014,-0.38465419795359634,0.02188348753306524,-1.4912341935192892,1.4152594482379832,-0.12137465497205267,-0.059362783237635774,-1.5707963267948966
5.59822416305542,2.648562430586478,-2.9183424006592564,2.4913987049609325,0.7593326826642129,-0.3824152660711215,-0.08465196196123408,-1.4941363989071994,1.426956161857087,-0.08612209308570483,-0.09077870977353353,-1.5707963267948966
5.618256092071533,2.6634503925327655,-2.9257046522175245,2.4896906870172937,0.7294756841759495,-0.3537786865902619,-0.08603926610309257,-1.4904879987610509,1.4363182201082223,-0.052951428072827426,-0.12219463630943128,-1.5707963267948966
5.638213634490967,2.667824333592747,-2.9300244476991524,2.4859355425300715,0.6365057857774437,-0.3613724140347553,-0.16696202936056895,-1.4895911451453214,1.5743853583385672,-0.0029241418484433515,-0.15361056284532904,-1.5707963267948966
5.658255338668823,2.6802569973017403,-2.9369283869246563,2.482598893561612,0.6067905537597665,-0.3285993245790414,-0.16654665669557223,-1.4806047425971856,1.701045086124892,0.043940301863950995,-0.1850264893812268,-1.5707963267948966
5.6782166957855225,2.6906849201721976,-2.9436863861709215,2.4769548274917415,0.550671292948267,-0.3066367559558356,-0.21748210205407653,-1.3232501202177351,1.7216140043197323,0.09891775030069176,-0.21466852925194724,-1.4821019935360225
5.698261737823486,2.701832712408681,-2.949568291333209,2.472477125366068,0.5400730741652057,-0.27485898667261827,-0.21948276704395336,-1.0689851788560645,1.7674198000309427,0.1499738899550555,-0.18325260271604948,1.5707963267948966
5.7183380126953125,2.7124367073217104,-2.9547090795562365,2.4681206920091663,0.5211327116027084,-0.23907686868676348,-0.21600211222354554,-0.8270927581636688,1.8103108038145483,0.19751219920954008,-0.15183667618015173,1.5707963267948966
5.738189458847046,2.7239671906181893,-2.959219301762298,2.464179051790046,0.5358235765101149,-0.2043652444864295,-0.20217417724177117,-0.6952464686079173,1.8429975413748168,0.23645036012848905,-0.17530680905077345,-1.173506643531086
5.758308410644531,2.7345531482869294,-2.9629361005413113,2.4601853074745357,0.5231947658609087,-0.16722377756811443,-0.1970802089932467,-0.5684722874478757,1.8702567295512664,0.2724651352241938,-0.1438908825148757,1.5707963267948966
5.778275966644287,2.739963961424305,-2.964402958503402,2.458592486877314,0.5235423230343678,-0.1450186565893128,-0.1832981724910221,-0.45042877199982584,1.8532411285728616,0.3006002602470849,-0.16663930916548697,-1.1374213325305638
5.798270225524902,2.7503524028482085,-2.9669340809385205,2.454988400322045,0.5156827337893227,-0.10816776842140342,-0.17702459405182536,-0.3361535040335542,1.8309895906408795,0.3263679418712563,-0.13522338262958922,1.5707963267948966
5.818308353424072,2.760426554294904,-2.9682652607186304,2.4523440685512803,0.5065171678868119,-0.05868575075461828,-0.1491179183460309,-0.20603572944964263,1.9147129602783532,0.342211957144482,-0.10380745609369146,1.5707963267948966
5.838241100311279,2.7705240539136997,-2.9690509660469484,2.4494311244532163,0.5036458378904218,-0.019639874700233224,-0.1421292835860118,-0.0821204455071987,1.9881897463921436,0.35637505771022177,-0.07239152955779371,1.5707963267948966
5.858334541320801,2.7922390137578397,-2.9675731237165186,2.4459993053213633,0.5405630845848192,0.07012517647600733,-0.08724719467290314,0.019122002802979925,1.794606301216486,0.3555304864822572,-0.04097560302189596,1.5707963267948966
5.878337621688843,2.803060648701542,-2.965824281705161,2.4443253775402884,0.5419245409992532,0.10413522086416022,-0.08015063399465872,0.11636254510507972,1.607463556293002,0.35401567924162564,-0.009559676485998203,1.5707963267948966
5.898305654525757,2.803809555000653,-2.965738205249483,2.4447860275239237,0.5671854339153589,0.10484841939303581,-0.06485141028539118,0.0754273279976676,1.4351229573355608,0.34819023557316964,0.02185625004989955,1.5707963267948966
5.918143033981323,2.8285101777985378,-2.9594066115341593,2.4436573192337976,0.6192442500059113,0.18586495561002278,-0.021645172715675627,0.08574280441069673,1.231208713388204,0.33258021561471335,0.053272176585797304,1.5707963267948966
5.938275337219238,2.8409129850790875,-2.9554562875398465,2.4432899056786677,0.6210765707086507,0.20851283390017905,-0.0151472481437203,0.09776963018393162,1.0348236754952838,0.31726060386911625,0.08468810312169506,1.5707963267948966
5.958362102508545,2.848374615292874,-2.9525404330942457,2.4438426686917505,0.6574782663710284,0.2397301342656978,0.007344876522847554,0.09064770192403754,0.8499407678217828,0.29757043326477856,0.11610402965759281,1.5707963267948966
5.978241205215454,2.8615420293134233,-2.9475877429933064,2.44404779803216,0.659252272441383,0.2549508431826567,0.013104446599109972,0.0873868087450304,0.6735282536608643,0.278487021773072,0.14751995619349056,1.5707963267948966
5.998353958129883,2.8693544888262297,-2.9440088211269777,2.4448067272413305,0.6946663193192859,0.2886930225666412,0.033058857039031955,0.056608721705870356,0.5186696810570922,0.25611935461224367,0.15445025259251777,0.34651481995136013
6.018193244934082,2.8914976781960164,-2.9340535502621305,2.4464588703638306,0.7327724288485938,0.33363455664567315,0.055932795797451966,0.02622333467549468,0.4412059523965624,0.22994989627906526,0.16932633913652495,0.7438043272003592
6.038286209106445,2.9061565575584325,-2.927297638573805,2.4476218285245297,0.7330282912806905,0.34170795199031523,0.06027957201976317,5.662101963569953e-05,0.36660710137373015,0.204915067842047,0.16054485156099885,-0.4390743787763052
6.058300495147705,2.9228321077607426,-2.919140941932378,2.449513254430723,0.7833746697476593,0.37858566910980623,0.07983671323198915,0.0001138498545027752,0.26960367227049326,0.1772425360300358,0.17988086019191707,0.9668004315459111
6.078319787979126,2.938499725420247,-2.91152153613623,2.4511436588568243,0.7833937718724369,0.38304742723672836,0.0831159080733996,0.0021155770184607043,0.17735712617163438,0.1508957061343026,0.16719626526654752,-0.6342297462684776
6.098396301269531,2.947580210087696,-2.907080890512984,2.4522755775647886,0.8192383061482695,0.4005510051936539,0.09272163199976942,0.06243911896197027,0.04117818953110925,0.1247939149454314,0.14510894245866224,-1.104366140394264
6.11815333366394,2.981967042729801,-2.8901472369920906,2.4565480672389537,0.8601858343222246,0.42265956693366485,0.10881902626407702,0.079204956973681,-0.08962162349701489,0.09628080423635531,0.11369301592276448,-1.5707963267948966
6.138302326202393,2.9991878068210256,-2.881720476848049,2.458741879904027,0.8619523435502735,0.4195946305526609,0.11047230511827157,0.09773449836857724,-0.2161676125740442,0.06929972835668635,0.08227708938686673,-1.5707963267948966
6.158467054367065,3.0086375439545066,-2.8770696407340863,2.460059676069952,0.8862272387499958,0.4292136571749769,0.11675294851542947,0.09413025613815876,-0.3862279517330087,0.0435389817424327,0.05086116285096898,-1.5707963267948966
6.178328990936279,3.0263809040530982,-2.868573599514219,2.462401798557072,0.8881119917624996,0.4198469435697262,0.1173782900698528,0.09509397232221696,-0.5492863027158895,0.019235420197817186,0.019445236315071224,-1.5707963267948966
6.198328256607056,3.0359928125565414,-2.8638442368837667,2.4637782463083466,0.9102195340135348,0.4288167236081029,0.12322432942080544,0.1571322742562661,-0.717432645173989,-0.004011006797458105,-0.01197069022082653,-1.5707963267948966
6.218125820159912,3.0640150484152224,-2.8506377276835995,2.4677092436276764,0.9340615130631283,0.4250529175959799,0.12957420151898164,0.27414232127183774,-0.8515854875551063,-0.02746713629474018,-0.04338661675672428,-1.5707963267948966
6.238359212875366,3.082758736436459,-2.8423157363274383,2.4702937432636114,0.9406859149159229,0.4067119339321766,0.12880241160948677,0.38773070083353184,-0.9818712990302765,-0.049472816468441476,-0.07480254329262204,-1.5707963267948966
6.258263349533081,3.1023244435694504,-2.833560168464747,2.4731086838535274,0.9646980080774396,0.40516497076818475,0.1335355230740529,0.4433041446777194,-1.2201597222964622,-0.07068036374943064,-0.10621846982851979,-1.5707963267948966
6.278308391571045,3.121710766145783,-2.8257161695679693,2.4757639143963215,0.9741192593157417,0.3784816650303476,0.13192149064198352,0.49880655573554517,-1.4461399847347685,-0.09049306468319535,-0.13763439636441754,-1.5707963267948966
6.298282623291016,3.1316694639459244,-2.821508984498996,2.4771829502923475,0.9847553861106074,0.37600028561005905,0.13380010837119116,0.5398884330345294,-1.6969026197947366,-0.10865571221676971,-0.1690503229003153,-1.5707963267948966
6.3181984424591064,3.1716054850745508,-2.806758067707623,2.482645798890598,1.009555888469599,0.3329673610283222,0.1344163011620491,0.5807029899016599,-1.8730476462150263,-0.12651002801253428,-0.20046624943621305,-1.5707963267948966
6.338297605514526,3.191915458985222,-2.800484633084567,2.485307697874714,1.0215771783382135,0.2938182032160122,0.1317184188860784,0.6214053171004331,-2.0404198320428706,-0.14306405033498437,-0.2318821759721108,-1.5707963267948966
6.358231782913208,3.202272163005405,-2.797129767539993,2.4868005162431324,1.0321818580390385,0.28564543850873586,0.13548678720043184,0.7658285798326465,-2.3141609987376928,-0.15875821671754664,-0.26329810250800856,-1.5707963267948966
6.378786087036133,3.233607257883179,-2.78902638318993,2.4910368369545868,1.056289856030641,0.22974823884803144,0.13761586704609605,0.8449504914165673,-2.6570062732379935,-0.17445836947958815,-0.2947140290439063,-1.5707963267948966
6.398402214050293,3.254907198824593,-2.784984571157694,2.4937532794366786,1.0739599159824709,0.17336358207154418,0.13398026581552402,0.9216541987317214,-2.977828962178329,-0.18889348852599575,-0.32612995557980407,-1.5707963267948966
6.4182000160217285,3.265659873997169,-2.782861052400869,2.4953609267930292,1.0831688862782116,0.15629768651348547,0.13996706872818776,1.0427016147342094,-3.2932063213310676,-0.20322206761081088,-0.3575458821157018,-1.5707963267948966
6.438438653945923,3.287539556789475,-2.7804136968699273,2.498118730625368,1.1051825974491243,0.08745760507915738,0.13576967898879624,1.1576648371593818,-3.587292636055267,-0.21631323554091816,-0.38896180865159957,-1.5707963267948966
6.45830225944519,3.3095882038748887,-2.7780815636398204,2.501305831385845,1.1211298070119358,0.04644943075539043,0.14566677071896295,1.2048634265240694,-3.8238595980928043,-0.07307856031878024,-0.4203777351874973,-1.5707963267948966
6.47831654548645,3.3322547957457362,-2.777932229428152,2.50421354359981,1.1456784952302261,-0.03224551281366313,0.14554491960353214,1.2495987542675007,-4.042717399013028,0.05906635788438344,-0.4517936617233951,-1.5707963267948966
6.498322486877441,3.3435361484074435,-2.7776415003042483,2.505937672974903,1.151720090159225,-0.05124028282666201,0.15266172815783643,1.269091945198677,-4.198364202824301,-0.04793493642175458,-0.48320958825929283,-1.5707963267948966
6.518195390701294,3.3784862234299626,-2.780367159239124,2.510701855566868,1.1847325497781724,-0.15911069323834182,0.1567344076785483,1.220298088089875,-4.342951280785528,-0.14519013105264394,-0.514625514795191,-1.5707963267948966
6.5382678508758545,3.4024219618553984,-2.7844268933337273,2.513801367464505,1.2086972868038248,-0.24729755272067924,0.15291555113897654,1.1770935812694812,-4.473407890633466,-0.23556218539662888,-0.5460414413310888,-1.5707963267948966
6.558434009552002,3.426854613415232,-2.7897428777747963,2.5173289215480947,1.2337237897869768,-0.32597855921352364,0.16121669917379555,1.198326870599005,-4.653786423573434,-0.2559353081403525,-0.562308007344198,-0.8133283006554581
6.578342437744141,3.4517700968288785,-2.797204410481366,2.5205007982647287,1.257890453903539,-0.4207214266988803,0.15590890862966236,1.2180979985602223,-4.817807720508278,-0.27455519749189133,-0.5937239338800957,-1.5707963267948966
6.59830904006958,3.4645555402105686,-2.8014610945326974,2.5223960272639188,1.2750754410469598,-0.46469321242166933,0.16365733837748817,1.3192005345800988,-4.939067762649327,-0.19530292598478816,-0.6030139161120283,-0.46449911159662793
6.6193084716796875,3.5166892777757326,-2.8237093448452675,2.5291358843871445,1.3300202354944228,-0.6565806216382521,0.16345957963161373,1.3983958578972038,-5.020926291384223,-0.27941606992625706,-0.6344298426479265,-1.5707963267948966
6.638315439224243,3.5435743322201256,-2.8378501137393344,2.5323439008827195,1.3587286464091366,-0.7577368339196909,0.15708266523647188,1.471429307792706,-5.093099972083887,-0.3572400519513107,-0.6658457691838242,-1.5707963267948966
6.658353805541992,3.557190424769991,-2.8457666477438903,2.5340975412443423,1.3725090290534059,-0.8123619601748617,0.15869126922804463,1.5316934199935286,-5.199275916248356,-0.4238527769972959,-0.697261695719722,-1.5707963267948966
6.6785805225372314,3.5988849777028036,-2.8726396100172,2.538911618425457,1.4137740643828283,-0.9743221955771146,0.15234825893008777,1.5556449758657234,-5.33867079789068,-0.4821642871300841,-0.7286776222556197,-1.5707963267948966
6.698338747024536,3.6274729962151953,-2.893202331681504,2.5418585151994395,1.445095096398566,-1.082364830665279,0.14216377983427822,1.5758392933336869,-5.463134866366325,-0.535458015276366,-0.7600935487915175,-1.5707963267948966
6.718196153640747,3.6418691765453572,-2.9045266268356507,2.5434349990099556,1.4571297875443545,-1.144392332575806,0.141511228240359,1.5664323454354931,-5.560051903998575,-0.5798086155451373,-0.7915094753274152,-1.5707963267948966
6.738312244415283,3.6713243386731547,-2.9285323226969378,2.5461465214760413,1.4883488921944812,-1.256458964385355,0.12950755258573163,1.5551731870237249,-5.6445702356892475,-0.6198502409705515,-0.822925401863313,-1.5707963267948966
6.7584497928619385,3.7013440993144586,-2.955018839025843,2.5488855810182525,1.517985260039303,-1.3756895436980687,0.12351356915007772,1.4975849026378716,-5.706427815335197,-0.6511775505742796,-0.8543413283992107,-1.5707963267948966
6.778379917144775,3.731999550003447,-2.9836775008577336,2.5512237098519726,1.5473723487342446,-1.4903470603832205,0.11020694077156687,1.4413463507198943,-5.757558590635434,-0.678891228284976,-0.8857572549351085,-1.5707963267948966
6.798325538635254,3.747639044378404,-2.999061938365997,2.552415832643273,1.5639476849783993,-1.553374459523945,0.10663338327172592,1.3567431391007547,-5.725833842864472,-0.7000282803423101,-0.9171731814710062,-1.5707963267948966
6.818152904510498,3.7953960920438723,-3.048513371417887,2.555372046406001,1.6100581227875113,-1.732621576241484,0.08740503275334331,1.2034456618558615,-5.641854050694694,-0.7141996937922845,-0.948589108006904,-1.5707963267948966
6.8383872509002686,3.8278280572383885,-3.0842884797431984,2.556976495161439,1.6326495726371633,-1.8446030033771428,0.07300142229383337,1.0567962343712907,-5.555979503572783,-0.7257271310887972,-0.9800050345428017,-1.5707963267948966
6.858416795730591,3.8445141868259354,-3.1034528340283942,2.5576435476173414,1.6503427781424906,-1.9124953339032986,0.06469810364668593,0.8386053368066012,-5.4903071738939815,-0.7315984809746353,-1.0114209610786995,-1.5707963267948966
6.878718376159668,3.9120684531074477,-3.1852980718740014,2.559425764813554,1.7039379893549356,-2.155047330774535,0.029506230033023734,0.6153780211031026,-5.377790333091569,-0.728024326100498,-1.0428368876145973,-1.5707963267948966
6.8983306884765625,3.946255979686498,-3.22946706934992,2.5598706008379533,1.7141086658918063,-2.2614769711044542,0.014994462709795282,0.4035731847445508,-5.265157194784527,-0.7228981116621077,-1.074252814150495,-1.5707963267948966
6.918187141418457,3.9622670928942774,-3.2506266095729472,2.5597351402978994,1.7325779463453836,-2.324808165492733,0.0014499398998690728,0.21027380200305615,-5.120771610141438,-0.713140606119943,-1.1056687406863928,-1.5707963267948966
6.938279151916504,3.9969482966729935,-3.2981374039661047,2.559622218682732,1.7349297912920738,-2.425796814848329,-0.012705782425529796,0.026478488626143784,-4.978433744199053,-0.7022456242101466,-1.1370846672222905,-1.5707963267948966
6.958484649658203,4.016892739851448,-3.325902810505245,2.559108310830841,1.7578078091577918,-2.5012049260636013,-0.029740675067138088,-0.15286073679086737,-4.8162327215495475,-0.6867192596132017,-1.1685005937581885,-1.5707963267948966
6.978137731552124,4.088400513878738,-3.4311075217395666,2.556817508634045,1.782170496374509,-2.7247138646510494,-0.07086677222382859,-0.3474715578601586,-4.649446628249592,-0.6624082092455809,-1.1999165202940865,-1.5707963267948966
6.998229503631592,4.123961947946687,-3.4865207763339963,2.555269319160016,1.7733569475271513,-2.8160694132607063,-0.08387068893374298,-0.5322638076853841,-4.4867910481891045,-0.6379626583341529,-1.2313324468299844,-1.5707963267948966
7.0182271003723145,4.142306646764463,-3.5156606491045257,2.5540263702890558,1.7848971610749422,-2.8815373797326624,-0.10067136163566723,-0.659595212883061,-4.38790435845904,-0.6110604574482741,-1.2627483733658824,-1.5707963267948966
7.038329362869263,4.177864438184478,-3.574162380910611,2.551892518678499,1.7704745686559287,-2.9683059127579954,-0.11262451582462792,-0.7818203706736635,-4.288938467905736,-0.5842755941180753,-1.2941642999017804,-1.5707963267948966
7.058338642120361,4.1961840618392765,-3.604867958682874,2.5503477089525863,1.7796858160577844,-3.033095226789546,-0.12928493398730995,-0.9330402663141032,-4.183765496719642,-0.5555782131043201,-1.3255802264376784,-1.5707963267948966
7.0781402587890625,4.267510064677757,-3.7306608665117524,2.544186850169353,1.7618805301484373,-3.2267021569318364,-0.16452472713193317,-1.148144656946466,-4.05870053170635,-0.5209029784966853,-1.3569961529735763,-1.5707963267948966
7.098253488540649,4.302504216291894,-3.795998393466023,2.540794448579238,1.736851544538609,-3.306639075380497,-0.17460238863869953,-1.3530738348709002,-3.9352614242697506,-0.4869899559376258,-1.3884120795094743,-1.5707963267948966
7.1184303760528564,4.337608432282944,-3.863754067143146,2.5368048504385468,1.7233652041136895,-3.4058942981638287,-0.19385272779375798,-1.655630217145573,-3.9176026879721944,-0.4518397491698592,-1.4198280060453723,-1.5707963267948966
7.138484716415405,4.371725262170751,-3.932654037311922,2.53283972563982,1.6873639261853202,-3.484026643493002,-0.2025456239873652,-1.9417933598163164,-3.8947822613581917,-0.41760119892182324,-1.4512439325812703,-1.5707963267948966
7.15829062461853,4.37196705404523,-3.9329064123224398,2.532727852867396,1.6925482814617576,-3.4916668008780625,-0.20578642406692033,-2.123141273243458,-3.829194580892403,-0.386433112486975,-1.4826598591171682,-1.5707963267948966
7.178239822387695,4.405381715799586,-4.003501073833933,2.5285368768708296,1.648340950820976,-3.5675713727785756,-0.2132098639365858,-2.296226600588929,-3.7608028495314025,-0.3560395310345689,-1.5140757856530662,-1.5707963267948966
7.198252439498901,4.439149605416552,-4.076133804006647,2.523952200669721,1.632769306395342,-3.654229015905574,-0.22593462780308526,-2.387943352820849,-3.592620248529581,-0.32599886522530847,-1.5454917121889642,-1.5707963267948966
7.2182087898254395,4.4876826911559835,-4.1876853896262425,2.516954785460671,1.5782425853215452,-3.7699194189978256,-0.23742736527085356,-2.3996597069481234,-3.4776525891156798,-0.29609046656317656,-1.5769076387248622,-1.5707963267948966
7.238324403762817,4.518766704566775,-4.263771638302509,2.5121489713061727,1.5301113969572742,-3.838321864608838,-0.24305719502346795,-2.4138656678294756,-3.362578183666155,-0.2670337845529085,-1.6083235652607601,-1.5707963267948966
7.258319616317749,4.534202381072763,-4.302598869971995,2.509663819071118,1.5116706278299348,-3.878927175350146,-0.24668072421606177,-2.5162755494617226,-3.2704903938653733,-0.2407326423841499,-1.6397394917966581,-1.5707963267948966
7.2782087326049805,4.592622383771161,-4.4608173984268165,2.499505540986858,1.4089217333466202,-4.0196447597235085,-0.25844251846735483,-2.5767022791427627,-3.1907986808119464,-0.21411964845892503,-1.671155418332556,-1.5707963267948966
7.298333406448364,4.62028147527995,-4.541843008461738,2.4942956015058364,1.3567877281960894,-4.082641848483795,-0.26246534150537815,-2.636608479730306,-3.108481946284001,-0.18829308043754886,-1.702571344868454,-1.5707963267948966
7.318209409713745,4.633518697709727,-4.582939168591371,2.491648220124075,1.323821698556824,-4.115617508729571,-0.26442924971668536,-2.729832741747612,-2.9745436235486085,-0.16545238417220615,-1.733987271404352,-1.5707963267948966
7.338276386260986,4.65944306581429,-4.665837404201176,2.4863280356534236,1.2683120716105967,-4.173753380639095,-0.2675151735851021,-2.820744885519758,-2.838744323883492,-0.14324517306569054,-1.76540319794025,-1.5707963267948966
7.3584113121032715,4.671819513066193,-4.707823759622802,2.483660051531925,1.2349248655035945,-4.20418791459355,-0.2682763020544186,-2.872666929511207,-2.734994738296392,-0.12397108267234828,-1.796819124476148,-1.5707963267948966
7.378171682357788,4.707470596947298,-4.8353440254383555,2.475585726954254,1.1455112160681975,-4.289798645150793,-0.27095461660916065,-2.8906838211072947,-2.6156748184477854,-0.10596325274725318,-1.828235051012046,-1.5707963267948966
7.3983070850372314,4.72980134848176,-4.921654997135399,2.470146620854917,1.087494937597858,-4.340888775935013,-0.2728974092636427,-2.9113819685179014,-2.4927532930003142,-0.0883880152532257,-1.859650977547944,-1.5707963267948966
7.4181602001190186,4.7403273743888485,-4.965264173294149,2.467458192942002,1.0520397399938284,-4.365909156609537,-0.272368222488342,-2.945086491519647,-2.262122051133554,-0.07360632511645794,-1.891066904083842,-1.5707963267948966
7.438334226608276,4.760776830264789,-5.05301963942223,2.4619970783991474,0.9927885583837526,-4.408884278013908,-0.2736949119135465,-2.9802719476875468,-2.0361683258558667,-0.05911038927882148,-1.91357301794016,-1.1253056928159033
7.458224534988403,4.77957998452754,-5.141944193308615,2.456543819065018,0.9202500590233531,-4.456561433864372,-0.27403494500835573,-3.132592245777221,-1.7800636687584823,-0.0468564439263282,-1.944988944476058,-1.5707963267948966
7.478109121322632,4.805512369093323,-5.276827040126648,2.4482999397627294,0.8177296266387734,-4.5191219376182605,-0.2754299012173247,-3.284180841658502,-1.5385414495645957,-0.035485008104894904,-1.976404871011956,-1.5707963267948966
7.498237371444702,4.82120041378787,-5.367501382595757,2.4427849960024384,0.7505957619725966,-4.5475270060447,-0.2760270275007978,-3.4279075411331954,-1.3029496450917293,-0.024250891826000327,-1.9950875819554352,-0.9341355471739643
7.518287420272827,4.83537125529829,-5.4593554539505185,2.4372694864842948,0.6774718115638838,-4.587843363885488,-0.2760767718842856,-3.6080348895598346,-1.0405582624135767,-0.014992187041678706,-2.026503508491333,-1.5707963267948966
7.538294553756714,4.848187617684701,-5.551303335360925,2.431745567909647,0.6036000071635282,-4.606096444038281,-0.27628435603818313,-3.7773645938194695,-0.7860567272773464,-0.005773433707800684,-2.042362093723284,-0.7929292615975525
7.558258295059204,4.854153234489079,-5.597901774133754,2.429027134171732,0.5682143517265873,-4.626243948451908,-0.27492056342939575,-3.916474980978456,-0.5725732340326428,0.0013344105439131934,-2.0730001777232854,-1.531904200000067
7.578239917755127,4.869756810582086,-5.737585959897241,2.420858163672588,0.45902811549488526,-4.659909693529689,-0.2725341245740314,-4.011668059055653,-0.3890535093429937,0.0071263325105373415,-2.1022867450520675,-1.464328366439105
7.598243713378906,4.878128997224174,-5.830849888382698,2.415409299643582,0.3778934584781766,-4.665881997994532,-0.27233250552608074,-4.100797166960914,-0.20870656991797482,0.013058000001466298,-2.1181804232515113,-0.7946839099721936
7.618240833282471,4.885217034234378,-5.924899276113171,2.4101284543603816,0.3034910883475992,-4.6852863870494685,-0.2679256615177496,-4.1955671080433845,-0.02057654979715976,0.016510301234098322,-2.147368868214409,-1.4594222481448815
7.638278961181641,4.890441760066165,-6.018596781550399,2.404773486977212,0.2186878939984149,-4.683850674659029,-0.26755866634502834,-4.283649752967894,0.16346833492811902,0.020233217217751003,-2.163014268920642,-0.7822700353116607
7.658196449279785,4.892544267075756,-6.06576160941815,2.4022150607300503,0.17842198767419817,-4.69007780513259,-0.26401623283082254,-4.395149082652147,0.32782618121900686,0.021979620777026167,-2.185081898163433,-1.10338146213953
7.678175926208496,4.896066263873762,-6.206686679867222,2.3944275238405357,0.04974893640962935,-4.6892504411462514,-0.25979887491578596,-4.513001768853977,0.48996402151923474,0.022489117234305845,-2.2122261313979146,-1.3572116617240892
7.69828462600708,4.8961512700718215,-6.300363037071906,2.3892361005306566,-0.04160895098269323,-4.677854846501497,-0.2593402724384424,-4.621195804375161,0.6490938094469504,0.023443922047721836,-2.228808860440439,-0.8291364521262112
7.7181925773620605,4.895633071574433,-6.3473459522508495,2.3867902453976253,-0.08496655696123662,-4.67655011286494,-0.2548793245978761,-4.718988024926276,0.8068910210072064,0.022568232061407383,-2.2410141616137524,-0.6102650586656821
7.738128185272217,4.888785278557994,-6.534145203227722,2.3768795191646777,-0.2666672084298833,-4.65196726943903,-0.24725280857644333,-4.815893881378026,0.9443300672716634,0.019861811293142684,-2.27243008814965,-1.5707963267948966
7.758370876312256,4.8824827751032,-6.626986598586251,2.37193828770127,-0.3638742734553703,-4.63171939337023,-0.24687718436418854,-4.903238724195212,1.0801913314664366,0.01780746684370987,-2.296800058230858,-1.2184985040603946
7.77814507484436,4.878729033755445,-6.673286687886967,2.3696548155339308,-0.4098966109314759,-4.620752477182284,-0.24146990639902433,-4.9725939287590695,1.1903021070784394,0.014125253721364006,-2.303183381550067,-0.31916616596043834
7.798276424407959,4.869532379746788,-6.765456338198335,2.3648280333275324,-0.50997202685611,-4.595845678927022,-0.24121817575093404,-5.0335685324331525,1.3003634012773733,0.011166407806632746,-2.331830335041819,-1.4323476745875974
7.818191289901733,4.858537502549293,-6.857142657925935,2.3602725757823673,-0.6059566946411781,-4.569051827987829,-0.2344461473123179,-5.073991336756635,1.437207945913924,0.006385466557126882,-2.3463316504726826,-0.7250657715431874
7.838103294372559,4.838134329647174,-6.993505177457485,2.353392225479542,-0.7568886109531455,-4.522928453775138,-0.23005146028932563,-5.099873209054052,1.5728055837720227,0.0009800473360279524,-2.3747922234012386,-1.4230286464278041
7.858313798904419,4.821975182460729,-7.0836402558154905,2.3487910748541188,-0.8590907873919814,-4.490134748851401,-0.2300787705530085,-5.119280082047509,1.706195193947602,-0.0035708883927614643,-2.390235446162418,-0.7721611380589577
7.8781373500823975,4.813109803949724,-7.128337719509079,2.3466153742188665,-0.9107653343379155,-4.469228973496919,-0.2266311333331707,-5.096416983366452,1.7465027123612686,-0.008834670541675764,-2.401242186551401,-0.5503370194491541
7.898213624954224,4.793876877460283,-7.217370120559949,2.342080677038299,-1.0124418514302727,-4.433864133469458,-0.22685325392495703,-5.070779457846932,1.7905994778980012,-0.013235881966385615,-2.4260948693637747,-1.2426341406186925
7.918163537979126,4.783418778547124,-7.26153628706749,2.339917107367659,-1.06534988545568,-4.413425108675536,-0.2240751404253418,-5.0403484589132805,1.7739274861520096,-0.018169883893535937,-2.4216576665262504,0.22186014187621783
7.9381794929504395,4.736506648978229,-7.436290860545258,2.3310346405874145,-1.273177192815999,-4.332326326975532,-0.22268419462498304,-4.972205844246968,1.8099978753257766,-0.022957196893622907,-2.453073593062148,-1.5707963267948966
7.958260536193848,4.710053226708547,-7.522572788698952,2.32657608916544,-1.371936582079555,-4.2957333861039055,-0.22318404690146498,-4.903670856404246,1.849925914485552,-0.02688744774312538,-2.4736996137090705,-1.0313010323461214
7.978171348571777,4.695874193531962,-7.565039998246515,2.3243385106574874,-1.4267580399273498,-4.265370947866626,-0.22370995347272107,-4.853578246929569,1.893988200491773,-0.030539158612293553,-2.473318658047921,0.019047783057479784
7.998192548751831,4.6663717373412625,-7.649965526031323,2.319858000449499,-1.5233152503398264,-4.227024617324626,-0.22435057564879515,-4.801880682231539,1.9411498794377025,-0.03339208712437482,-2.5013004880880736,-1.3990915020076322
8.018195867538452,4.650601037177099,-7.691750725532348,2.317568601054337,-1.5792098134935815,-4.196500197080805,-0.22602634020608414,-4.728785076431022,1.9436238051707322,-0.03580622019583044,-2.4994277160111142,0.09363860384796752
8.038111448287964,4.5831346265399775,-7.857515697503296,2.3083958775127877,-1.780241295917493,-4.105103405723009,-0.2301135927333307,-4.6274198964394015,1.9527094635855835,-0.03694896744870557,-2.530843642547012,-1.5707963267948966
8.058422088623047,4.546610991990412,-7.939226345310139,2.303786172463365,-1.8717897597918915,-4.065912998709361,-0.23085854639104927,-4.527699977588775,1.9672191147834293,-0.03743959950174692,-2.5518873453704223,-1.052185141170514
8.0781831741333,4.527369214598659,-7.979411318183757,2.3013797305821844,-1.9247032534813089,-4.0351679559655125,-0.2340416948973043,-4.428692369967093,2.0050654491385216,-0.03742959525992865,-2.5556326780817153,-0.1872666355646535
8.098277568817139,4.487995932834612,-8.059710965690341,2.296691440618681,-2.01230014288605,-3.9946590141088465,-0.23478533206597538,-4.331258244083131,2.0463971237207708,-0.03683912941330871,-2.5788858057714217,-1.1626563844853166
8.11818552017212,4.446299453641655,-8.13866714579403,2.2917968879786432,-2.1127330594388014,-3.9404946475009996,-0.24035077413768083,-4.228528566346087,2.0739168484201396,-0.03530216577751206,-2.5936253816872563,-0.7369787957917318
8.138257026672363,4.403205837272598,-8.217060223477317,2.2869829387106266,-2.1962926780114658,-3.898708311631771,-0.24103742587256183,-4.12775844147073,2.105356974361765,-0.033284440228775976,-2.610309383180772,-0.8342000746757838
8.158369302749634,4.380652419072437,-8.255644299926105,2.2844343179741373,-2.2475293158830434,-3.8689020330560036,-0.24525258487041143,-4.019561931876221,2.140358748092379,-0.030871967957251566,-2.6226266340367843,-0.6158625428006159
8.178222894668579,4.310982163643917,-8.370507146535322,2.276926872809498,-2.380413338226242,-3.7971264117915933,-0.25002569770982713,-4.013882192087048,2.2333200881650948,-0.027501392028896558,-2.654042560572682,-1.5707963267948966
8.198356628417969,4.262571807745538,-8.44599684661028,2.2719211010016718,-2.460582829018965,-3.7515359650043485,-0.25053907376013956,-4.002058542327372,2.3256085130543087,-0.0237788593930981,-2.662717769137102,-0.43376042822098615
8.218297719955444,4.237466171889261,-8.483224606165603,2.2692872430085096,-2.508394313456129,-3.7229239703942563,-0.2543362512235839,-3.9511714450985185,2.4018282499289305,-0.020037718070667676,-2.6804741140939936,-0.8878172478445912
8.23811960220337,4.133721269472384,-8.63021289713934,2.2589691894488726,-2.671514100193889,-3.6265147461988962,-0.2581153727686386,-3.8703992244734695,2.431941295961143,-0.01572231197928065,-2.7118900406298914,-1.5707963267948966
8.25826096534729,4.079522352900695,-8.702254600283004,2.2538040389388443,-2.748104321220325,-3.577542199504282,-0.25838438561809063,-3.788429787091986,2.4659492379097165,-0.011134755330518959,-2.72748872958783,-0.7799344478969239
8.278242588043213,4.051788551166508,-8.737883150074042,2.251172225720835,-2.7869545157861992,-3.551545669220616,-0.2598057831949363,-3.6955805643900237,2.5377881999791274,-0.0072902088700251295,-2.742569109675071,-0.7540190043620498
8.298209428787231,3.9953165537401887,-8.808401676654146,2.2459749227844497,-2.859934485962303,-3.5000649042200065,-0.25991073731904624,-3.6023592641616426,2.6104121795346855,-0.0031585034585857987,-2.7588256458480847,-0.8128268086506907
8.318236112594604,3.9664060001731687,-8.84326887978939,2.2433260778342006,-2.899232165431063,-3.4730807633824394,-0.26133189657211586,-3.5496235110884835,2.7069326727131315,0.0002671284656419395,-2.7756599573346827,-0.8417155743299043
8.338875770568848,3.8473386371591625,-8.980174757197705,2.2327945088873373,-3.0464933646186383,-3.3677827690270488,-0.2632001092222782,-3.4532294346116124,2.8010783257936454,0.003817988109042418,-2.8070758838705805,-1.5707963267948966
8.358283758163452,3.7857245642761885,-9.04696399040134,2.227531521451076,-3.1145917003904655,-3.310831401308082,-0.2630858427973814,-3.3565633578389202,2.8938229332425447,0.007655240894643404,-2.8295582324330306,-1.1241174281225064
8.378149509429932,3.7543339563472906,-9.08003946852115,2.224872249469303,-3.1495188632489746,-3.2841653366408923,-0.2637621350451179,-3.269499404881187,3.0126851851198815,0.010603818106074445,-2.845244974900492,-0.7843371233730689
8.398276805877686,3.6906955238906285,-9.145112489831375,2.2195993398404745,-3.2140315051306967,-3.2227522913075024,-0.2635179567356013,-3.1816373328046064,3.1280365827870678,0.013864911205873966,-2.8627255231215094,-0.8740274110508706
8.418245792388916,3.6255919106930317,-9.209347870232493,2.214321590893546,-3.2816581113520114,-3.1704787403832353,-0.2633740921944624,-3.10891721885672,3.152699298774718,0.016090785527371025,-2.8916391017260965,-1.445678930229355
8.438789367675781,3.5256544674484895,-9.303317828422129,2.2064435898518426,-3.3767610914473916,-3.082823926723294,-0.26241058660928346,-3.039589055570848,3.2368223161678595,0.017850178162251897,-2.9204990884152404,-1.4429993344571956
8.45822811126709,3.4575160402535667,-9.364321424250686,2.2011990843065505,-3.4368445369538145,-3.0172612473229745,-0.26203285325925063,-2.9684631907683308,3.3191448145378457,0.019984316847814324,-2.9317030849219208,-0.5601998253340179
8.478176832199097,3.422985431712579,-9.39451768664476,2.198599400874428,-3.466180907974043,-2.988351187571644,-0.2612522457566119,-2.896905431553013,3.441338593645336,0.021060338749951675,-2.951927937405249,-1.0112426241664085
8.49819016456604,3.3530872950777826,-9.453588541190236,2.1933786604971863,-3.523388132689643,-2.9183432403448717,-0.26081683045553206,-2.8235201213858883,3.558647723504713,0.022548519343333687,-2.968046421337106,-0.8059241965928443
8.51828646659851,3.3176882479624856,-9.48284193569047,2.1907992066297557,-3.551497197926602,-2.8889880331541353,-0.25977130564444284,-2.7395979754856703,3.659197086210239,0.02299381355114959,-2.9887010323131293,-1.032730548801175
8.538204431533813,3.1733599590612696,-9.596005121025131,2.1804942792049546,-3.6620975592146845,-2.754345025355738,-0.2570921173672162,-2.6590239293777915,3.8194449599229823,0.02272018398049326,-3.020116958849027,-1.5707963267948966
8.558231115341187,3.0995916644263364,-9.650317888173936,2.1753569875018033,-3.714457386876744,-2.676426706686235,-0.2566363168611985,-2.576670325072287,3.970942629432997,0.022940706166931037,-3.041701321199567,-1.0792181175270033
8.578212261199951,3.0623356504180754,-9.677204082368425,2.1728556686121445,-3.7389669821192766,-2.6448681841182293,-0.2545485149716465,-2.494261869391411,4.093702099337683,0.02203243644394735,-3.056354669819035,-0.7326674309733994
8.598233222961426,2.9870630375009823,-9.729274861723026,2.1677690711602855,-3.788013978983422,-2.561823164572369,-0.25411247255088665,-2.4101642853702003,4.209680253777688,0.0216594158496659,-3.0770271383266703,-1.0336234253817578
8.61824107170105,2.910763406686877,-9.780369138648027,2.1628213358852175,-3.8370103971600438,-2.4943659666521545,-0.2503868279483899,-2.331938748713217,4.294167830415186,0.019833015541613642,-3.1029554454970247,-1.2964153585177218
8.63880443572998,2.794576742870002,-9.853669201747154,2.1554109775691406,-3.907036495838255,-2.3762330150242477,-0.24718772830382765,-2.2561961462514737,4.359278460470544,0.017385548620080262,-3.133189299165999,-1.5116926834487066
8.658221244812012,2.71598995321408,-9.900317832240946,2.1504705691205888,-3.9513813864242437,-2.2884240824981776,-0.24685913997077646,-2.1778732195740114,4.421064834516064,0.015578162297415722,3.1369845159302834,-0.6505746041652216
8.678165674209595,2.6763973926741698,-9.923246015974913,2.1480822760269778,-3.9713754067562266,-2.250799687668743,-0.24449169230192083,-2.080417002758864,4.507275895509582,0.012880652108738086,3.1191752610619066,-0.8904627434188406
8.698247194290161,2.5965603533541257,-9.96735506781826,2.143194871830399,-4.012000037432587,-2.1598354597466103,-0.24425550581037414,-1.9818721655643177,4.588288588658873,0.010846745300458819,3.09912460746257,-1.0025326799668388
8.71823763847351,2.5563237633728995,-9.988952103798162,2.140822079037103,-4.0318145358400095,-2.119892481171758,-0.2422096373359736,-1.927856897206577,4.6386157015501635,0.008051323190731896,3.0827695866111995,-0.8177510425685153
8.738450765609741,2.4753056995951597,-10.03041904185428,2.1359793442756057,-4.069798709584729,-2.0266446549635417,-0.24207089522461928,-1.869919781514022,4.685617505391365,0.005934022855434402,3.061827771868815,-1.0470907371192384
8.758162260055542,2.3934282811944283,-10.070363044807113,2.1312377618244263,-4.109297291784848,-1.9410154589329969,-0.23951796641052833,-1.8175891301140428,4.732676345948544,0.002955877244618567,3.037677526996365,-1.2075122436225216
8.778135061264038,2.269314099314158,-10.12662782952776,2.1241147629653834,-4.163851386855907,-1.803130199244382,-0.23771646097814675,-1.7765700863074896,4.788572625238018,-0.00017575636555616499,3.0106774636937983,-1.350003165128344
8.798269271850586,2.18568473599031,-10.161729215649485,2.1193602256774686,-4.198932041991563,-1.7068369224447029,-0.23774532692545924,-1.7307019693201031,4.840021267333149,-0.0025938824182975676,2.9956552534127106,-0.7511105140544094
8.818215131759644,2.1014631736751617,-10.19505577590347,2.11468526436365,-4.230297617805691,-1.61357647750123,-0.23584550936531545,-1.6763615631712938,4.874062535165857,-0.005637616987280032,2.9739714464698244,-1.0841903471443093
8.838305473327637,2.0165257617926735,-10.226350409185585,2.1099670597935636,-4.263249831174232,-1.5157857214668227,-0.23598270065077637,-1.6182422396027467,4.904402585626933,-0.007963914337239928,2.9564774433717265,-0.8747001549049171
8.858262538909912,1.9739317178048195,-10.241323203590968,2.1076679302582813,-4.274606085493338,-1.4683025653979334,-0.23249643645742538,-1.4553326190651383,4.9071811264620635,0.21695605326582104,2.987893369907624,1.5707963267948966
8.878154039382935,1.845060144450507,-10.283181760908548,2.10069695367794,-4.316422672046606,-1.3214962423098646,-0.22770775935256812,-1.276301271194333,4.899802763607509,0.40372086089951226,2.971437898544707,-0.8227735681458848
8.898212194442749,1.75848805957764,-10.308632288714284,2.0962352535538464,-4.340209441446687,-1.2235858928240486,-0.21788888079952726,-1.1033875962328714,4.89099692632426,0.5757383937844266,2.9547485695821916,-0.834466448125748
8.918126583099365,1.6712718132872375,-10.332006675868369,2.09148726751232,-4.366547756570121,-1.1229643335922712,-0.2180798971764628,-0.9379151044128269,4.808985025173122,0.7605155088787926,2.9671033577930483,0.6177394105428169
8.938288927078247,1.583764045359085,-10.353509441524507,2.0872892995489334,-4.383694848468168,-1.0275728835047917,-0.20115357047230342,-0.7776576496110135,4.7307880250816075,0.929520525221789,2.9381214793013726,-1.4490939245837664
8.95824384689331,1.5395655227822524,-10.363290680695227,2.084872325589146,-4.399276669123578,-0.9729629205127652,-0.2045201090874743,-0.6024643622505209,4.6885698871342125,0.9500579913253507,2.9633926597800464,1.2635590239336913
8.97816801071167,1.4068396867570832,-10.389953578861508,2.0786636008499584,-4.42938517864145,-0.8207913496020735,-0.18980674475636522,-0.4174611602629561,4.638873081432345,0.9648261717141217,2.9383845647213622,-1.2504047529342088
8.998183965682983,1.318180468512298,-10.405444909246937,2.075061259250996,-4.435943647912828,-0.7285050093383364,-0.17038857776200184,-0.23955987386353472,4.589876778903151,0.9764789095069507,2.930047547417886,-0.4168508651738012
9.0182044506073,1.2287699231718172,-10.418515791984676,2.0713732739425463,-4.455616857857956,-0.6242300112350879,-0.16322731284746755,-0.09409367458120954,4.371808015849047,0.8566099697946575,2.927784850210715,-0.11313486035855469
9.038273096084595,1.139648192409617,-10.430140001098701,2.068272388076416,-4.456089463287138,-0.5388800803346115,-0.14723892693721485,0.04593436686040196,4.1650499110650046,0.7433115940972295,2.910686046544389,-0.8549401833163106
9.05858325958252,1.094696724184723,-10.434914996424277,2.066716626498468,-4.465726754560522,-0.4871290506154027,-0.14379441632991305,0.14917575275868225,3.971527665410177,0.6420239722842604,2.9207884547344634,0.5051204095037232
9.07818055152893,0.9156288510126298,-10.450237734250374,2.0615712953020213,-4.472007962716829,-0.3054503040564021,-0.11679766026483115,0.26041088188577144,3.7827623894131515,0.5441394703067535,2.8893725281985656,-1.5707963267948966
9.098237752914429,0.8262479803814308,-10.455602294654545,2.059337931831883,-4.465722232291088,-0.23160321110544063,-0.10684586387791782,0.36747250045146723,3.6035165862991394,0.45198415627308386,2.886144177488461,-0.16141753550520388
9.118266820907593,0.7814438843355117,-10.457172850360537,2.0582906329570565,-4.465736027492346,-0.18042892407263875,-0.10314439077478832,0.46081413422353545,3.4994746322755717,0.36979392332751154,2.891425779763579,0.26408011375589346
9.138212442398071,0.692227355616995,-10.460088289587498,2.05629647769892,-4.455618589763862,-0.11144980330307544,-0.09652828200492884,0.5502917328823709,3.3990321945198834,0.2926478789553475,2.8750680434156752,-0.8178868173952081
9.158189535140991,0.6475456167623211,-10.460403826598856,2.0554158998806593,-4.453360087981843,-0.059460035903351534,-0.09119903432696407,0.6570424489447836,3.452948905116921,0.34878102821583906,2.886039205151171,0.5485580867748086
9.178214311599731,0.5140948116306869,-10.460197226253054,2.052892707278129,-4.436850085159839,0.0561583760727056,-0.07901896430670621,0.7574322690613037,3.4884440516599318,0.396199202546341,2.865983923055385,-1.0027641047892777
9.198325634002686,0.42551577433437465,-10.458374228344908,2.051394519005444,-4.420733290710566,0.12624480063415536,-0.07065575491793666,0.8535396381277522,3.519461733967398,0.43943341719272627,2.8608684096752572,-0.25577566900638615
9.218281507492065,0.3371612420566843,-10.454999050409919,2.0500475470271278,-4.40560791391835,0.1991987917477413,-0.06212699600610579,0.9394297062979255,3.5075155745617868,0.47347634786745324,2.8567099728257563,-0.20792184247504508
9.238182067871094,0.24924251522913615,-10.450314437345902,2.0489017973460952,-4.3859904735481425,0.26921808212529147,-0.052346089880052994,1.021719302958709,3.4941865247077297,0.5040425632099033,2.845482782428512,-0.5613595198622257
9.258161067962646,0.2053994585780669,-10.447545030235194,2.0484097689205774,-4.375974133998135,0.3013670426321917,-0.046853785748665215,1.0951129933949326,3.5080535826470896,0.5277390672598129,2.852583929618854,0.35505735951710804
9.278215169906616,0.031199827775714405,-10.432901897812346,2.0469759899392663,-4.332147515731062,0.43501813654976057,-0.024097141752232744,1.1564759052269191,3.376518883227597,0.6554997030831032,2.8259701081262047,-1.3306910746324618
9.298235416412354,-0.055207957614716446,-10.423534812675666,2.046633051894319,-4.308441171680085,0.5012644126554032,-0.009811487618972046,1.213433186483641,3.2487287260646114,0.771057331267493,2.8239094772456372,-0.10303154402839798
9.31817626953125,-0.09813650420877355,-10.418438726512885,2.0465478191390525,-4.292812529362747,0.5317378918992562,-0.003052158059567341,1.2881868448406417,3.2524137696363717,0.7568552193485314,2.8248701964726735,0.0480359613518333
9.338324785232544,-0.1837303207733965,-10.407153363172723,2.046637153227654,-4.2663323774496185,0.596802562529115,0.011935112102813002,1.3592129047558092,3.253651034012884,0.7417194221698635,2.812896991776501,-0.5986602348086123
9.358302354812622,-0.22623838170331198,-10.40096437601531,2.0466981426570077,-4.25041708779943,0.629840683734939,0.016714684616454156,1.3265589091359764,3.132134652192839,0.7254970218648825,2.816134805946165,0.1618907084831811
9.378132343292236,-0.3530318780931567,-10.380639513288692,2.0475315412304824,-4.205593972656634,0.7236285124804838,0.0376041416997177,1.4817787953740555,3.0402192249437623,0.5803616346117062,2.795119083899893,-1.0507861023135945
9.398318529129028,-0.4368375384417397,-10.365564868200305,2.0483904541080893,-4.174486873274661,0.783540163818468,0.047832164473951895,1.627339041156472,2.9514684894922403,0.4438638858078532,2.7912808432370007,-0.19191203314459226
9.418280363082886,-0.5198662431432949,-10.349322718937048,2.0496646788717663,-4.138492304019571,0.8416575145335207,0.06204037065894536,1.7190014104065179,2.904166716812498,0.320929544240716,2.7806435561636462,-0.5318643536677214
9.438339471817017,-0.6022865073116763,-10.331911861004365,2.050961862498298,-4.103250447404148,0.8992724559672609,0.06729385679399383,1.8041035725975012,2.8574198792375047,0.20568601249068733,2.7731821041918323,-0.37307259859069575
9.458243131637573,-0.6432972087286261,-10.322821985724731,2.0519270361610276,-4.086602280548393,0.9261737646011942,0.07868930699292524,1.8753381615231024,2.832697240934156,0.37031376751756867,2.7710074174608827,-0.10873433654745579
9.4782235622406,-0.7651942825120034,-10.293839811669033,2.0546478842511244,-4.033706949206196,1.0085825859491373,0.09589632778910971,1.9528306859537243,2.8071605840662266,0.5236351837430235,2.749808682436459,-1.0599367512212021
9.498152017593384,-0.8454730249094369,-10.273108473568643,2.0566800425948117,-3.9939312880923135,1.06446323053593,0.107782967118102,2.0236341295952887,2.7807630486793187,0.6626793785424157,2.745132785471146,-0.2337948482656671
9.51819133758545,-0.9250573194199695,-10.25144147609226,2.058888998157867,-3.9554917867434964,1.1153205553527332,0.1195324913648452,2.0811116121341153,2.741863869316834,0.7967439832176522,2.713716858935248,-1.5707963267948966
9.538286209106445,-1.0037473950680684,-10.228589275013485,2.061447251415888,-3.9133437226389094,1.169770589390213,0.13669434464566868,2.1327307006543,2.7031750140628996,0.9172028756514399,2.684303866669202,-1.4706496133022773
9.55821967124939,-1.0427702125995735,-10.216854181855531,2.0626864355768504,-3.8913433441434035,1.1938032698540164,0.14174286169185174,2.178872040251354,2.6777934049194463,1.0163503824652667,2.6528879401333043,-1.5707963267948966
9.578184127807617,-1.1585084145680924,-10.179902902898737,2.067124584990675,-3.824812407554149,1.2721008747256162,0.1651376470886582,2.234666528191291,2.6711706425633865,1.0864387978371932,2.6214720135974066,-1.5707963267948966
9.59826111793518,-1.2345543061756303,-10.153927173643078,2.0706487839096246,-3.779610461927749,1.3254446040101588,0.1874817119730144,2.284556404089429,2.6629372788965084,1.1462835802174316,2.590056087061509,-1.5707963267948966
9.618284225463867,-1.3096212790729589,-10.12705919006306,2.074326875272722,-3.7316012418832742,1.3741276261509543,0.2036481609201558,2.364541814917413,2.657284668699399,1.2059166655020335,2.558640160525611,-1.5707963267948966
9.63840389251709,-1.3837754670471234,-10.099045627976755,2.0786444945698044,-3.6835777671616685,1.427205053020089,0.228279153128078,2.43648172291798,2.6502263550056555,1.2555365377587495,2.537679310927997,-1.0480424798807286
9.658257722854614,-1.420476198955059,-10.08480533978808,2.080844841044463,-3.658157013050151,1.4488742366000238,0.2348235384828859,2.5212927977256157,2.6421139104217803,1.0074254624184775,2.506263384392099,-1.5707963267948966
9.678436756134033,-1.4931298634231385,-10.055300041228525,2.0857269773370684,-3.606955749885404,1.50162405044462,0.2526109830040342,2.597401661735437,2.6326437495217885,0.7736877743774447,2.4957175120887483,-0.5272936151675456
9.698226690292358,-1.564886072383889,-10.025028144848827,2.0911128954201486,-3.558002222716227,1.5467105448977454,0.27246374693311404,2.6761056417958713,2.598619573974905,0.5646093608010736,2.4643015855528505,-1.5707963267948966
9.7181875705719,-1.670590424247578,-9.97767890129631,2.0999511392637635,-3.4825193124388716,1.6178849272332652,0.29951142827561056,2.6890443993504114,2.549530809635686,0.36977153604354324,2.4328856590169528,-1.5707963267948966
9.738234281539917,-1.7397023091922854,-9.944814444397768,2.106002941495882,-3.4286373548947666,1.6684054201538139,0.30505977628220243,2.698594049642655,2.5029269293420993,0.18706129276026995,2.401469732481055,-1.5707963267948966
9.75835371017456,-1.7740057028139526,-9.928232798542185,2.109439742248623,-3.4057567184681683,1.6866943839566637,0.31624274921454765,2.7117912634789154,2.4713787433614605,0.02601796715819641,2.3742142182540587,-1.3627757113497951
9.778231382369995,-1.9082007750145167,-9.859050442142733,2.122819413394583,-3.3005243368075234,1.7788237819028354,0.33309947160771886,2.6907854033268856,2.455757834213272,-0.12305590095367443,2.342798291718161,-1.5707963267948966
9.798259496688843,-1.9736745469472141,-9.822983827843748,2.1294473604108584,-3.2469256553507186,1.8277874640914882,0.32923200778621203,2.668946207684895,2.440702180161699,-0.26202656054389845,2.311382365182263,-1.5707963267948966
9.818262338638306,-2.0060080166438414,-9.804774628894824,2.1330098349795352,-3.2202719783322284,1.8467531790909963,0.3334650295263752,2.6396464707877527,2.4471449835224224,-0.38219768011390554,2.2850445341334957,-1.3168915524383484
9.83849573135376,-2.069887458657649,-9.767349771223941,2.139595122995979,-3.167768454649316,1.895749777760445,0.3246923283788486,2.6107768425986473,2.4523022344720573,-0.4936343298992267,2.2742674145898523,-0.5388559771821733
9.8582444190979,-2.1013514916478155,-9.748475619154965,2.143127003602985,-3.139420239678132,1.914741670383136,0.32757764066289535,2.5847854417618796,2.5047431218778744,-0.5890103771771316,2.2428514880539545,-1.5707963267948966
9.87814998626709,-2.224652143221999,-9.67030242440874,2.1562125177979405,-3.031418450937832,2.004825283194392,0.31409889855209894,2.5150663387070393,2.577609370024147,-0.6713944833364484,2.2114355615180568,-1.5707963267948966
9.89828872680664,-2.2847818880412567,-9.629685838255527,2.162355068899007,-2.981771233802473,2.0570563400851296,0.2999044712060537,2.45050319268119,2.6445140170760357,-0.7469194687571828,2.180019634982159,-1.5707963267948966
9.918196201324463,-2.3143165332229314,-9.609313098282081,2.1654744254248195,-2.9527121419058076,2.0748125174987977,0.2962530167808828,2.438007961457191,2.7453941177707684,-0.8089182230344425,2.1486037084462613,-1.5707963267948966
9.938448429107666,-2.3728839413139045,-9.567261487509334,2.171233860808809,-2.9040659289736803,2.130655343527494,0.27950325211743904,2.426828621731934,2.8374328241813003,-0.8651015885528903,2.125761933773541,-1.1420887336360375
9.958348274230957,-2.4015829027210027,-9.54626637673524,2.1741387957231435,-2.8743510164797663,2.146401183318998,0.2747047994350933,2.3314254916137487,2.883515852370117,-0.9097824000585101,2.094346007237643,-1.5707963267948966
9.978142976760864,-2.5143210826597113,-9.458894516291206,2.1846127803820803,-2.7737451954881394,2.242540088752051,0.24307943210505276,2.095912675524016,2.9092457275451977,-0.9420084793029768,2.0629300807017454,-1.5707963267948966
9.998235702514648,-2.569391585363171,-9.413460394219426,2.189284028504725,-2.7340290283588122,2.300941667403894,0.22395187863209415,1.8787189756737983,2.930112616112496,-0.9700608590297063,2.0385683520788707,-1.218086431143739
10.018141984939575,-2.596297201055791,-9.390702978067758,2.191515234778662,-2.707147244972675,2.3193638921936075,0.21504944162940653,1.6429300649808962,2.966326248454346,-0.9891667568725051,2.0518842411139504,0.6657944517539871
10.038283348083496,-2.6501262798586396,-9.343720294448012,2.1956172888204506,-2.6764802084007835,2.3790070017991414,0.1951037162056888,1.4270497501121102,2.9970882890960167,-1.004842309676736,2.023507865405307,-1.4188187854321743
10.058206558227539,-2.6761142872725046,-9.32011861048416,2.1974900417047896,-2.6436334345665036,2.399408437733707,0.18394191289328887,1.2183662416008898,2.9934425035601477,-1.0126202418922439,2.0304784180349866,0.3485276314839858
10.078167200088501,-2.779448487128768,-9.222188765802123,2.2038611374616575,-2.5608619228514633,2.5076733188056632,0.1389153282359603,1.0499524124481683,2.8968241669923622,-1.008286278041765,1.9990624914990889,-1.5707963267948966
10.098194122314453,-2.830466195542641,-9.171462113508587,2.2064381756947453,-2.5414193345295044,2.5646872739583397,0.11880957709096533,0.8968211398487507,2.8054309378120825,-1.0019627789163454,1.9926841897295064,-0.3189150884791214
10.11812686920166,-2.8550863027801867,-9.145805243738762,2.2074314538999125,-2.5128598528886528,2.5894762431306986,0.10577949097995089,0.7201457995582246,2.819984114664101,-0.8650743939750137,1.9814967648757573,-0.5593712426874564
10.138294696807861,-2.905210234875699,-9.093450987686905,2.2093827721102803,-2.5000549162214467,2.645982214721339,0.08978319492053013,0.5636688485356409,2.829842258492069,-0.7358121113502072,1.9695378946990498,-0.5979435088353524
10.158310890197754,-2.9539501405777404,-9.039895503174261,2.210651371947638,-2.461652049513999,2.7031248546025406,0.06501508185702866,0.40764161835898416,2.678053693614149,-0.7407480550789071,1.9512268068823158,-0.9155543908367036
10.178248882293701,-3.003111205355458,-8.985307015294056,2.2118033008805336,-2.4549180791938605,2.7552511330277496,0.050168392624796894,0.268538881267142,2.536209101251243,-0.7435747884829348,1.944340895743716,-0.3442955569299633
10.19820261001587,-3.026969884073439,-8.957475817057698,2.21200725850984,-2.4344339690583503,2.784190074868123,0.0355285534077942,0.1147609175146003,2.412702857009003,-0.7403103452352418,1.9289653053448133,-0.7687795199451397
10.21824598312378,-3.099241445030442,-8.87247119472989,2.2125575646448006,-2.4106927210144358,2.867357690789619,0.0082768833786994,0.14351870180742718,2.34238112070991,-0.7305178152815219,1.9093286809105052,-0.9818312217154013
10.238273859024048,-3.147424452551768,-8.814660041424762,2.212577710193376,-2.407497179304875,2.913537273211383,-0.006225799783522014,0.17677164179882265,2.2762692668911755,-0.7195599239560667,1.9046541560304275,-0.23372624400388453
10.258357524871826,-3.171006850865333,-8.78501891252263,2.2123315635951415,-2.391626814203196,2.946984954742355,-0.01745455249738653,0.28791586545624925,2.2267788361435645,-0.7053819559818483,1.8893677043580164,-0.764322583620558
10.278443574905396,-3.2663498083303137,-8.66478245369292,2.2108995012247754,-2.377300226337717,3.0499667725461594,-0.049549946469714015,0.5142631491937043,2.223107303859296,-0.6845557522084488,1.866423155945954,-1.1472274206031363
10.298273801803589,-3.313778262772951,-8.603338864501962,2.2097729993559643,-2.364816831147961,3.0943717426614867,-0.06302951172420806,0.7327811077034022,2.21698726595607,-0.6633375716168245,1.8623730038956001,-0.20250760251769861
10.318175315856934,-3.3377372466405832,-8.572060458859953,2.209060821919798,-2.366075484525003,3.1224634315684003,-0.06942002757052179,0.9778490282212408,2.1903822190744493,-0.4744858454426238,1.84836959322337,-0.7001705336115105
10.338229656219482,-3.3848473638820717,-8.509174953229858,2.2075894638967455,-2.344153609786197,3.1659940837315066,-0.07712949513073754,1.2126410263775005,2.162468655088961,-0.29859710332059075,1.8389029389762959,-0.47333271235370233
10.35823655128479,-3.4328777912316886,-8.445221942052191,2.205734264461248,-2.3540659340201597,3.2135773024652896,-0.08856519999347011,1.4254316355595542,2.093248673067074,-0.1205154582554703,1.807487012440398,-1.5707963267948966
10.37824034690857,-3.479660280409258,-8.380536278232505,2.2039500711073243,-2.3235031355713596,3.2547638480412258,-0.08930428029995864,1.62938862176861,2.025678816725423,0.04444615059040053,1.7760710859045004,-1.5707963267948966
10.398255348205566,-3.5039406456702813,-8.347733322425182,2.202782233058307,-2.336994686382107,3.278885468715337,-0.09552430007252646,1.9091780073980387,1.9502720382867984,0.18575067180532984,1.7446551593686026,-1.5707963267948966
10.4181809425354,-3.5744915459141855,-8.24822704042055,2.1995889768078456,-2.3142672528362493,3.344299148000505,-0.10206250666677934,2.225604086892544,1.8707882953709858,0.1300874433821797,1.7132392328327049,-1.5707963267948966
10.438255071640015,-3.620311525809216,-8.180972072686215,2.19757022355592,-2.266732534887381,3.38094105870692,-0.0999857202202743,2.5250705015835444,1.7938174490842922,0.07821540233711076,1.681823306296807,-1.5707963267948966
10.458309173583984,-3.690032395703311,-8.07814965066741,2.1942534067893456,-2.2526856913808935,3.4472099514483867,-0.10293546041586636,2.801076435936768,1.7385017568123668,0.18785279285431175,1.6504073797609093,-1.5707963267948966
10.478379726409912,-3.7345082572277417,-8.008861410130788,2.1922391461650217,-2.194031185030802,3.4814316418377107,-0.09815379790857094,3.061864581444789,1.6837636676642407,0.2888972077290765,1.6189914532250116,-1.5707963267948966
10.498231887817383,-3.7352213998615196,-8.008752609223137,2.192260415876707,-2.214886198783115,3.484301220300782,-0.0960554367580381,3.254445611471359,1.6294977825956698,0.39605950339350426,1.5875755266891138,-1.5707963267948966
10.518145084381104,-3.8017284068433286,-7.903260060504308,2.1894670596251653,-2.158740677042569,3.5391357344437315,-0.0855328199584784,3.4475583314284908,1.564463754555214,0.5300990483649402,1.556159600153216,-1.5707963267948966
10.53831672668457,-3.8442013349064017,-7.8321687120527645,2.187870791277547,-2.087941687629283,3.5697874255526867,-0.07368494394787055,3.6306940822026643,1.5009577521725213,0.6528246570942096,1.5247436736173183,-1.5707963267948966
10.558283805847168,-3.8870872163987324,-7.7601768779269475,2.186445185816957,-2.059389755521219,3.6064194357202974,-0.061768752901281254,3.7850255916582247,1.4040842717769564,0.7745567290597772,1.54254436102718,0.8900343704930869
10.578278541564941,-3.927508171415441,-7.687773979553071,2.185372275361806,-1.9822214744593898,3.6335575342747917,-0.0451538788875018,3.930310199060568,1.310223156346522,0.8850852070249983,1.5111284344912823,-1.5707963267948966
10.598231315612793,-3.94805101414989,-7.65115857093668,2.1848848203687763,-1.9666824321875171,3.6518504394002003,-0.037476721377944514,4.1523116407932905,1.2018685603502417,1.0319044827782606,1.5265611322264467,0.7716348867582212
10.618168115615845,-4.024650615741707,-7.503669688866877,2.183875865158008,-1.830072061127253,3.7102084562683655,-0.002594976954998156,4.263769427266938,1.0933645245841634,1.223368606666146,1.495145205690549,-1.5707963267948966
10.638221263885498,-4.060392271290763,-7.429253895371981,2.1840804561399403,-1.7437484713435034,3.7310215216037124,0.023629342301312542,4.3672789855991185,0.9885519846029276,1.3959566158025665,1.4841005345198601,-0.5522335585344429
10.65830397605896,-4.078129214536427,-7.3916456865398725,2.1842741258057248,-1.71431446269932,3.7473607888473794,0.03575788727917927,4.365068037399278,0.9176744528063675,1.5279732521528202,1.4820773255740454,-0.10116044729073792
10.678569555282593,-4.11154271801751,-7.316519543736114,2.185302925294678,-1.6270485992271533,3.765025035579312,0.06751202441826802,4.361254559543837,0.8491370255741346,1.6449683960811778,1.4577600983863475,-1.2158613593848955
10.6982581615448,-4.127895199367238,-7.2785376937103905,2.1859024304902515,-1.5916502644336568,3.7807202613716737,0.08007736187626022,4.317816218316893,0.7482805817345065,1.6896854229616978,1.4594412020395051,0.08405518265790501
10.718175172805786,-4.1879858942593415,-7.126336001095939,2.1902363428954543,-1.4147775571730175,3.8188122679631435,0.1432790551083591,4.313808347596146,0.6656498921516611,1.7706046384863234,1.4280252755036074,-1.5707963267948966
10.738295316696167,-4.215419034981408,-7.0498320030565935,2.193460814579654,-1.3285554597811415,3.8313208429482093,0.17939633107389874,4.308125593110604,0.5856413248100688,1.8390754048508657,1.4138686151222473,-0.7078330190680049
10.758230209350586,-4.228171346128603,-7.011385632530861,2.1952688992192653,-1.2764271255980562,3.839347784172431,0.1960729359731785,4.27806178817549,0.5113692367791214,1.9015258522598724,1.4104426091007705,-0.1713003010738401
10.77826476097107,-4.252846273966179,-6.93450122929447,2.1995742410539716,-1.1911654334761468,3.8488532924789975,0.23463053251065813,4.248129169422339,0.43959447196938306,1.9523165670899187,1.3882840021288576,-1.1079303485956427
10.798282623291016,-4.264131127999521,-6.895881253064659,2.201897708620313,-1.1372109024640829,3.8557025057157577,0.25101011120585404,4.186216859087787,0.37602355015845457,1.9690143385789463,1.3890883918164416,0.040219484379222514
10.818361759185791,-4.305485020422367,-6.7412058601227915,2.2133988532122193,-0.9504865994175932,3.8731361867124705,0.3272176674449792,4.127873231145596,0.2729272595578917,1.9642721002940666,1.3576724652805439,-1.5707963267948966
10.838399171829224,-4.323672998718927,-6.6636951431575,2.2203354110037195,-0.8685011437192292,3.8776105214407544,0.3664001370708195,4.070898847099419,0.17542864372980954,1.9528828795837283,1.3452633907967861,-0.620453724187886
10.85830044746399,-4.3316231082475545,-6.624903950688591,2.2240763971859083,-0.8128679183415164,3.878713547192238,0.3835064093047369,4.039257628082306,0.08545046094684193,1.7224570315126109,1.339776989343692,-0.27432007265471015
10.878334045410156,-4.347074764865655,-6.547318335182121,2.2320762063024766,-0.7324058886584273,3.879564889983892,0.4157430641963816,4.006814660052771,0.000514478345395555,1.503021919266937,1.320180277635549,-0.9798355854071517
10.89830732345581,-4.353640879926612,-6.50845696848322,2.2364571621433655,-0.677402509658101,3.8811062391364324,0.4354887015780673,3.9058470036956807,-0.025626066649986873,1.5291160769371088,1.316156650975615,-0.2011813329966916
10.91820502281189,-4.376811547299989,-6.353180075082278,2.255502472867612,-0.5015091220930766,3.879680077101247,0.5040075612376729,3.8960387656395437,-0.16666208705426874,1.3110280057340653,1.2847407244397173,-1.5707963267948966
10.938275337219238,-4.386063243226881,-6.275628856531367,2.265830838596065,-0.42369763547623607,3.8749950453092437,0.5281384881114795,3.8848900079629183,-0.30068433164202385,1.1038672220441699,1.2709909020346553,-0.6874911202531031
10.958332538604736,-4.389702165654474,-6.236939695821162,2.2713453941189448,-0.37381552763169723,3.8691586669569324,0.5427260898915442,3.8552438720906754,-0.4872935533129019,0.9161653092708626,1.260842132870322,-0.507438458216658
10.978394269943237,-4.396409407738574,-6.15966587803521,2.2823711232077537,-0.297007755706625,3.857637220337118,0.5592535649547723,3.8255215848053044,-0.6630649772953131,0.7381857272829635,1.2439534421531473,-0.844434535858718
10.99828290939331,-4.39888937484727,-6.120981653709215,2.2883696267087097,-0.250438357639706,3.853646890578448,0.5756805711762027,3.825600310232821,-0.8447159581282039,0.574918698839827,1.233671551697256,-0.5140945227945615
11.018174409866333,-4.405543662889547,-5.966946259555671,2.3125392931822613,-0.09029498955536744,3.832821508295391,0.613742983220534,3.8276045547661797,-0.9680366660340368,0.41265195270774296,1.2022556251613583,-1.5707963267948966
11.03826379776001,-4.406584060965243,-5.890491277684656,2.3248863208090484,-0.013748283447285533,3.812290890395563,0.6204491567492892,3.826566408310858,-1.083776092253202,0.2594618802669815,1.1879251054239033,-0.7165259868727514
11.058455228805542,-4.4064503741220244,-5.852150539797265,2.3313806730131157,0.026737217187453567,3.807991220061726,0.6295844832541143,3.83970677700606,-1.206818479605585,0.12033652710503576,1.1754565890664281,-0.6234258178737573
11.078335762023926,-4.405147009877451,-5.776239887634751,2.343987564643984,0.10362989372609688,3.782690056964051,0.6306681578927655,3.8489145320282088,-1.322003252138665,-0.010623043736043405,1.1588276351996303,-0.8314476933399151
11.098394393920898,-4.40392435488644,-5.738189808215649,2.3506293773545526,0.1408413455226331,3.7771534615860314,0.6389589218789883,3.729967869687142,-1.361683359054927,-0.129683660458697,1.1463051951582335,-0.6261220020698399
11.118260383605957,-4.395283408209173,-5.587844860173122,2.376621087360462,0.28936997357487165,3.730245875255747,0.6456188739087245,3.55128254158681,-1.406722809201335,-0.24490904126069982,1.1148892686223357,-1.5707963267948966
11.138259649276733,-4.388797204517654,-5.5135240736190205,2.389477172041166,0.3586853605886858,3.7016970138330136,0.639630145363696,3.3817688642785173,-1.4474545371513632,-0.3527464784844176,1.10023037363346,-0.7329447494437868
11.15886902809143,-4.384925409555012,-5.4765368103122025,2.396021104166222,0.39461520524867777,3.688119430657387,0.6397247256222625,3.208203783761992,-1.4583899489699128,-0.44891548336895504,1.0857288691441909,-0.7250752244634562
11.178193092346191,-4.376402556024089,-5.403066741682994,2.4087197346593427,0.45712348066579134,3.658856761228561,0.6298397125279156,3.0442002026883928,-1.4675920472064348,-0.5385013795918422,1.0716945606862822,-0.7017154228954103
11.199903011322021,-4.360398246290014,-5.294072947393778,2.4276402027114954,0.5691539127607668,3.611106860829634,0.6183070903143791,3.003927447873991,-1.535015896021718,-0.618605064826355,1.0402786341503845,-1.5707963267948966
11.218249082565308,-4.348416995188635,-5.222162082432691,2.4398775809992106,0.6288417502376029,3.5797698966096987,0.6051835101080881,2.96509264299296,-1.5979392597594342,-0.692775924057239,1.0278977419459583,-0.6190446102213087
11.238239288330078,-4.341620958539241,-5.186568112692995,2.4458989882683,0.6679822863139282,3.560136149483883,0.5977414415528435,2.9175736408750077,-1.6110480442403932,-0.7568469643400724,1.0099802923783168,-0.895872478382076
11.25838303565979,-4.327680843516974,-5.115688434407796,2.457698437418674,0.725878957140158,3.527790563702478,0.5820072521931807,2.8724949703926907,-1.62338291816342,-0.8157154690845988,0.9975260116589473,-0.6227140359684746
11.278257131576538,-4.312270903978308,-5.045599525380558,2.4692504379496594,0.7901545590855085,3.4915598937372896,0.5671549478234151,2.802549864753406,-1.624030060930826,-0.8657146021603968,0.9727951863095399,-1.236541267470348
11.298120498657227,-4.287202694032479,-4.941747358848912,2.4859090708430394,0.8765197413909943,3.437689220434658,0.5416923866985623,2.735081529980855,-1.664481504467193,-0.9085739211357066,0.9488181541351413,-1.198851608719953
11.318295240402222,-4.2691295706463706,-4.873329034881347,2.4965585581587924,0.9305816630795145,3.4040171519414306,0.5231275408310513,2.6717995199432782,-1.7022898174608745,-0.9472169316736172,0.9393612777989198,-0.4728438168110527
11.33825969696045,-4.259613543054589,-4.8395765307681975,2.5017238335252556,0.9593123059983069,3.3805786762295957,0.512756371554265,2.654275900497331,-1.7758855185662692,-0.9786958789416494,0.9187286907630288,-1.0316293517945718
11.358482122421265,-4.239897592383268,-4.77232478247763,2.5117813067312436,1.0122255162767608,3.344367994471347,0.4928982110409942,2.6371021927401217,-1.8443350414258992,-1.0065188876875177,0.9074901960086548,-0.5619247377186998
11.378332376480103,-4.2295377875031885,-4.739117234114289,2.516637146162249,1.0418781447537395,3.321067134946686,0.481936496983806,2.6857419868458656,-1.9449472808581032,-1.0281627912783868,0.8860760276679223,-1.0707084170366254
11.39817762374878,-4.185730248710058,-4.607840966560753,2.5350729991453993,1.1481058444442618,3.242070465659624,0.4401996596137006,2.6585221685334366,-2.0764508682773006,-1.0419547677579653,0.8546601011320245,-1.5707963267948966
11.418267011642456,-4.162238203981548,-4.543423129622742,2.5436678187755892,1.201010425170512,3.199307088512984,0.4192454182246023,2.6320609142558418,-2.1982966433003246,-1.0530216070341318,0.8425000658763824,-0.6080017627821066
11.439026594161987,-4.1378714909048355,-4.479767674534275,2.5518297836704043,1.2490582147521694,3.1578221107191418,0.3979006911676281,2.6309023499716884,-2.2853875181778105,-1.0580785506255093,0.814143749106409,-1.4178158384986705
11.458294153213501,-4.11236429730923,-4.417073770704307,2.5595759571801207,1.3016523732741894,3.111300903633968,0.376707274148549,2.62827157857936,-2.3656009035601855,-1.0608953601777733,0.8052089849940063,-0.4467382056201341
11.478276014328003,-4.112441463592945,-4.4169982030817065,2.5595780082381956,1.2991942480343994,3.112813741655491,0.37674895300091177,2.6468356442692436,-2.43844044613739,-1.0618851170769947,0.7961018387165093,-0.455357313874849
11.498340368270874,-4.058601961549428,-4.294119370071899,2.5738070206452557,1.398627807519713,3.022116674378625,0.33450883534915965,2.622262736680224,-2.518587847560477,-1.0559247533655503,0.7646859121806111,-1.5707963267948966
11.518233060836792,-4.030106610535289,-4.234185741717261,2.580286489750151,1.4508240939354775,2.971002627023467,0.313463251386881,2.597303074875665,-2.5916510360703158,-1.0483727565927843,0.7350490363414792,-1.481843791956594
11.538221597671509,-4.015631033448259,-4.204504471019171,2.5833628323910713,1.4716974992117433,2.9469433710823694,0.3028870954919377,2.53641221162927,-2.7013749724804557,-1.038370115666584,0.727714941303458,-0.3667047519010591
11.558342456817627,-3.985693752721564,-4.146112738891073,2.589213633888769,1.5218347634918112,2.8918943019359937,0.2822308260216769,2.4776685082125742,-2.8020405821227152,-1.0270393704554175,0.7074224514738638,-1.0146244914797098
11.57828164100647,-3.970441663113871,-4.117181083828141,2.591967657839733,1.5439702420163466,2.8673070540066194,0.2716079066193922,2.4565450049574284,-2.913334596373106,-1.0136282648604444,0.6935075596068794,-0.6957445933492235
11.5985848903656,-3.9067267649703292,-4.004426741770366,2.6019917109131034,1.6416403784368625,2.759417673271078,0.23056130918592482,2.4185803739326217,-3.0385221715132475,-0.9939579728300358,0.6620916330709816,-1.5707963267948966
11.618300914764404,-3.8734127156305003,-3.9498538999596713,2.6064054913425814,1.6896417724850004,2.697485001352361,0.21088458576278854,2.3817450090354626,-3.1529785113670754,-0.9736029056338843,0.6426131241926916,-0.9739254439145029
11.638197422027588,-3.8564154562072583,-3.9228168295145447,2.6084649335614523,1.7128838577841767,2.6708585261007136,0.20134034751173183,2.3779468704113897,-3.314873491966747,-0.9523799783694198,0.6263178348564713,-0.8147644668110132
11.658500909805298,-3.821682544224751,-3.870072710411701,2.612302706083647,1.760387947388984,2.6030613238952447,0.18250941518282232,2.3721297842088114,-3.4624974182196224,-0.9306273039446855,0.6093489249207726,-0.8484454967849331
11.678256511688232,-3.803971796674952,-3.84387977751329,2.6140804242833227,1.783690850100282,2.5769256359178043,0.17342296274108768,2.3735681130733357,-3.5897945409920595,-0.9082553732379227,0.5911366081900615,-0.9106158365355554
11.698171854019165,-3.7308096429467748,-3.7430192583680877,2.6203049357963364,1.8763855262333853,2.4482546113375956,0.1378199403746278,2.3746696993573546,-3.7069295202344352,-0.880916929994219,0.5597206816541638,-1.5707963267948966
11.718204975128174,-3.6928070247555276,-3.694802752800197,2.6228869763377096,1.9238733392945657,2.3730459034640004,0.12047540472461157,2.3737844101836725,-3.8119472156355063,-0.8535299167751719,0.528304755118266,-1.5707963267948966
11.738200902938843,-3.6735376010026095,-3.6709752442827326,2.624086691761948,1.9452039302373145,2.3419727949830533,0.11325535694300426,2.3906069296690076,-3.92875926977566,-0.8265930389830767,0.49688882858236827,-1.5707963267948966
11.758349657058716,-3.6341544107606087,-3.6249287079697114,2.626188275628427,1.9931624459269266,2.262332634073845,0.09699278213773535,2.404813487240555,-4.033225147905774,-0.7996675514265549,0.4654729020464705,-1.5707963267948966
11.778238534927368,-3.614207791229318,-3.6021977269561223,2.627131217531864,2.0143672329750264,2.2301363105187377,0.08960162802259265,2.428546628458082,-4.094454870679251,-0.7730851947386383,0.43405697551057276,-1.5707963267948966
11.798316478729248,-3.531895506309642,-3.515835534931031,2.6300970980818144,2.1069457073022786,2.0764543662503776,0.05904504447373777,2.4991525492457303,-4.104058081882244,-0.7423882080624018,0.402641048974675,-1.5707963267948966
11.818177461624146,-3.489252363993024,-3.475127620853521,2.631131548889156,2.157583320314941,1.994323528418004,0.04450109671508786,2.5635938413637063,-4.108114691387136,-0.7120701585909317,0.37122512243877726,-1.5707963267948966
11.838253736495972,-3.467715466127823,-3.4552999478687174,2.6315626573749142,2.1793562409743976,1.9555295050834913,0.03824954426627305,2.687886372766531,-4.103288731757176,-0.6827571748383104,0.3398091959028795,-1.5707963267948966
11.858253479003906,-3.4235829975028693,-3.417009493176667,2.632193031494344,2.2342704015715213,1.873545369055959,0.02488427369916259,2.8018244968304797,-4.094469243590426,-0.6538354377283814,0.30839326936698175,-1.5707963267948966
11.878227472305298,-3.4014179648779286,-3.398533064289139,2.6324006010115286,2.25419385415037,1.8307035265686684,0.01833989166846458,2.9422944444500456,-4.1048743872091125,-0.6256876340213635,0.276977342831084,-1.5707963267948966
11.898147821426392,-3.3097006530378312,-3.328840839422901,2.6325856786164934,2.3517519610993056,1.6598524621031379,-0.007527280507879822,2.946007326530596,-4.118515135427871,-0.5940424062747864,0.24556141629518624,-1.5707963267948966
11.918217897415161,-3.2620762829759538,-3.2964681440796704,2.632318399804762,2.4106895701926057,1.577388771793162,-0.019097408323549996,2.9473657777752575,-4.12700761657156,-0.5630846415885673,0.2141454897592885,-1.5707963267948966
11.938225746154785,-3.238255837238141,-3.2811062089054124,2.632090039038741,2.428147970599642,1.529894234633582,-0.024736806983315002,2.9565561691499793,-4.16949095270035,-0.5333761665431467,0.18272956322339073,-1.5707963267948966
11.958212614059448,-3.189101119645618,-3.2513446946759568,2.6314905746479447,2.487343413423156,1.446139486347469,-0.03511284076322481,2.9624450356094867,-4.2048046918142346,-0.5043386968639452,0.15131363668749298,-1.5707963267948966
11.978232622146606,-3.16437160461023,-3.237262371091145,2.631073745759991,2.5084694196883053,1.3992529073186688,-0.04107566782480205,2.908492377380091,-4.215939075787018,-0.476262774792489,0.11989771015159523,-1.5707963267948966
11.99820613861084,-3.061896466333938,-3.1848443813110427,2.628950771087582,2.620264843022992,1.2256138559982783,-0.06253010308836338,2.871537723797407,-4.272895135667057,-0.47523395039317146,0.08848178361569747,-1.5707963267948966
12.018297910690308,-3.0089193694897767,-3.1611900933853185,2.627605254878165,2.677318749242823,1.1396507851640787,-0.07201383798158544,2.833710721674071,-4.322143850777287,-0.4729307023648913,0.05706585707979972,-1.5707963267948966
12.03819990158081,-2.982029569656819,-3.150111970897325,2.6268240668139367,2.7047143041969015,1.0929879384490244,-0.07772448635631114,2.7960613964571435,-4.393502210115397,-0.46841428619034525,0.025649930543901966,-1.5707963267948966
12.058260440826416,-2.9273786297126763,-3.1291352412803617,2.625176247780913,2.7602509784711318,1.0044756311657401,-0.08703888243256117,2.75744848250096,-4.456323379925662,-0.46285455618319904,-0.005765995991995787,-1.5707963267948966
12.078246831893921,-2.87154844773443,-3.1099280243312313,2.6233175091422547,2.817113401173395,0.9155263502830439,-0.09679683600483686,2.72644541960871,-4.496466869481198,-0.4545536903751577,-0.03718192252789354,-1.5707963267948966
12.09822702407837,-2.81466303513181,-3.0925191213014913,2.6212912543857625,2.871319364268243,0.825253099227864,-0.10579836386529433,2.693897848911146,-4.5297259278096496,-0.4454714780030738,-0.0685978490637913,-1.5707963267948966
12.118356227874756,-2.7857353848889477,-3.084433353993027,2.6202078457758926,2.9007414255163964,0.7815503680451937,-0.11025190267286546,2.719530265728783,-4.539335812931398,-0.43553502534,-0.10001377559968905,-1.5707963267948966
12.138906002044678,-2.6674178832711086,-3.0567343638801523,2.6154284251496267,3.0127206662695887,0.600357096613686,-0.1278262299345862,2.791954454726912,-4.667669029374645,-0.3890763679056083,-0.1314297021355868,-1.5707963267948966
12.158331394195557,-2.606600664712331,-3.045668596061441,2.6127970820232695,3.069215098120359,0.505839423073157,-0.1351599032494664,2.8561302605480163,-4.781753713487928,-0.344621916042803,-0.16284562867148455,-1.5707963267948966
12.17828631401062,-2.606589281752056,-3.0456680336859474,2.6127912798089357,3.0704662595529024,0.504326883576134,-0.1348035945305597,2.9337037681355596,-4.907770621265039,-0.30493755634075276,-0.1942615552073823,-1.5707963267948966
12.198182344436646,-2.481677574893568,-3.0290522133964295,2.607076395590618,3.181179061465035,0.317028277704861,-0.14864319912030174,2.918241136766446,-4.93268877939942,-0.2994878419813216,-0.22567748174328006,-1.5707963267948966
12.218217849731445,-2.417471619152695,-3.0236995189735754,2.604044032172335,3.2393488448972394,0.21817987828408456,-0.1545726683404135,2.897943193755537,-4.951077600455144,-0.29334598392565225,-0.2570934082791778,-1.5707963267948966
12.238221883773804,-2.385079086698477,-3.0215878084757426,2.602511032997369,3.2639619133297297,0.1728451805288856,-0.15661583864383122,2.8586371981192817,-5.042137001690757,-0.2870571187763357,-0.28850933481507557,-1.5707963267948966
12.258323907852173,-2.319230906265144,-3.019144833986651,2.5993217551476855,3.320714165869325,0.07118653184374925,-0.1622889225219532,2.816049664111759,-5.121862723272685,-0.28015039916513657,-0.3199252613509733,-1.5707963267948966
12.278255224227905,-2.2859370378865442,-3.018519165134092,2.5977119391822723,3.346615898338761,0.024205132455679602,-0.16427486351361037,2.7090597032505848,-5.194385340949708,-0.273262751387701,-0.3513411878868711,-1.5707963267948966
12.298192262649536,-2.1497403900196512,-3.021345327181647,2.5909424765482383,3.4580093029335863,-0.1749335249798252,-0.17463637060455378,2.5382456574517875,-5.221625754120333,-0.26446139936511776,-0.38275711442276883,-1.5707963267948966
12.318272590637207,-2.08008369918557,-3.0258897290738354,2.5873974648095053,3.507106580915314,-0.27957024851739615,-0.17983406180885886,2.3722844983071965,-5.240704707939407,-0.2552393025254243,-0.4141730409586666,-1.5707963267948966
12.338224649429321,-2.044686209573499,-3.0287688919739573,2.5855872918459615,3.535250493697652,-0.32691779528718223,-0.18234153465777883,2.1659038656615657,-5.233889082130869,-0.24631353450551202,-0.44558896749456434,-1.5707963267948966
12.358329772949219,-1.973561398771128,-3.0363532972953733,2.581891812722398,3.576567843151696,-0.4314818210455014,-0.18717535239895886,1.9670784893825264,-5.221616907124531,-0.23700626672339442,-0.4770048940304621,-1.5707963267948966
12.37826657295227,-1.9372266321541316,-3.0407948311427453,2.5799684424489424,3.6082151901879866,-0.4801414675810898,-0.19068007617777635,1.7769675486348007,-5.2389811185479225,-0.22781781818871585,-0.5084208205663598,-1.5707963267948966
12.398202180862427,-1.7904339140418024,-3.064080097023129,2.5720242239777473,3.704187032370853,-0.6870359350228654,-0.20316942855580036,1.6832150066243434,-5.23904929121989,-0.21641188638322928,-0.5398367471022576,-1.5707963267948966
12.418317079544067,-1.716019826457815,-3.078868313672131,2.567918322223743,3.736906190492688,-0.7917649405511878,-0.20738214704107052,1.5885555205322826,-5.232815387818251,-0.20483218164267047,-0.5712526736381554,-1.5707963267948966
12.438143014907837,-1.6780790704851332,-3.0870087826886685,2.5657337971989036,3.7657532861545246,-0.842857080645131,-0.21218835379921897,1.501750179423409,-5.210218264903426,-0.19347078008269417,-0.6026686001740531,-1.5707963267948966
12.45833945274353,-1.6024695171066672,-3.104906251685018,2.5614521003375903,3.7949077165762968,-0.9468005636363986,-0.21594300409601183,1.4134510801088016,-5.183443628107004,-0.18197252633814412,-0.6340845267099509,-1.5707963267948966
12.478286743164062,-1.5640528131287164,-3.1146350455014997,2.5591847079418004,3.8185065234382107,-0.9981515873841449,-0.22046261440573395,1.230758149117454,-5.109272764756441,-0.17083033587293514,-0.6655004532458486,-1.5707963267948966
12.498215913772583,-1.4485598102550972,-3.146973005276891,2.5523952357896555,3.8647471623290817,-1.1537209771669976,-0.22830639766485844,1.0314080129256293,-5.0382606241757735,-0.15883618060332555,-0.6969163797817464,-1.5707963267948966
12.518317461013794,-1.3710715603212384,-3.1710503079664205,2.5477981421453793,3.8834342931154717,-1.2537702821894785,-0.2313628620177113,0.83834505592333,-4.966558462879276,-0.14680492838204973,-0.7283323063176441,-1.5707963267948966
12.538264513015747,-1.2926245699013916,-3.19737618799691,2.5429663824781548,3.9140589843735802,-1.3595314737608664,-0.23870510413345636,0.6167571527482613,-4.930993248893063,-0.1346128058662897,-0.7597482328535419,-1.5707963267948966
12.558253526687622,-1.214234393782156,-3.2255505062259204,2.5381661698455904,3.924247768166423,-1.4577725804651411,-0.2412755758720338,0.40349688083484886,-4.892664115906905,-0.12243797570366778,-0.7911641593894396,-1.5707963267948966
12.578328609466553,-1.174453482415599,-3.2405739471157973,2.5356020505387296,3.9418368468898533,-1.5114151788033594,-0.2465573277376304,0.2584202302869257,-4.778277408552645,-0.11072297678891972,-0.8225800859253374,-1.5707963267948966
12.598224401473999,-1.0156306140517954,-3.305215478846664,2.5254309347947768,3.9731849130060906,-1.7109067923033014,-0.25627910043962615,0.05970156840746232,-4.701778535458573,-0.09774115862423577,-0.8539960124612351,-1.5707963267948966
12.618322849273682,-0.9361679018737831,-3.3403689146097792,2.5202866635130174,3.972445299194575,-1.8041847259999835,-0.2581051906619873,-0.13260170997401483,-4.626160985880117,-0.08489012994120874,-0.8854119389971329,-1.5707963267948966
12.638266801834106,-0.8960760857224106,-3.358835282247097,2.5175854924600367,3.979472744367604,-1.8551889856583783,-0.26212383730615163,-0.37620169151046623,-4.540760089306931,-0.07303808909638357,-0.9168278655330306,-1.5707963267948966
12.658747434616089,-0.7764002724899334,-3.4167748667223217,2.509581584335759,3.9797983544496636,-1.9973736980996972,-0.26724385408406165,-0.5532363149291767,-4.433419684299744,-0.061090853749270736,-0.9482437920689284,-1.5707963267948966
12.678321123123169,-0.6969264982883125,-3.4576020098885216,2.504225279146195,3.9670060339829196,-2.084992213234417,-0.26834727110672263,-0.7251468624470142,-4.328897250437624,-0.049272809952935315,-0.9796597186048261,-1.5707963267948966
12.698210000991821,-0.6569526692725327,-3.4788935730533614,2.501450208476787,3.966995703357154,-2.1341309799629524,-0.27127015055852705,-0.9898805713067158,-4.264038497660885,-0.03870476015216997,-1.011075645140724,-1.5707963267948966
12.718196868896484,-0.5778278483174127,-3.522424619294761,2.4960177650350968,3.9446393228672862,-2.218753663128634,-0.27193923720550134,-1.2440044056523731,-4.198045053023844,-0.028217937692000636,-1.0424915716766217,-1.5707963267948966
12.738229751586914,-0.5063664864876023,-3.5634363312030595,2.491001737189562,3.9376679030321715,-2.30323450202694,-0.27526634725048976,-1.4595433760366274,-4.075315861280702,-0.018763815637007478,-1.0739074982125194,-1.5707963267948966
12.758238077163696,-0.42791897263845635,-3.610308061691291,2.485493285521184,3.9063938670714835,-2.3835400420223096,-0.2755474578507611,-1.6664302242350373,-3.9557636285182145,-0.009355402700025495,-1.095276314240179,-1.068440801382975
12.778334140777588,-0.3883999707805037,-3.634605933956446,2.482690271154327,3.9031073900853137,-2.4299849192038856,-0.2768428452079348,-1.875897563450776,-3.883068773115447,-0.0014033375309216586,-1.12271848799034,-1.3721086875080557
12.798216104507446,-0.271546525763583,-3.7095767334592042,2.474360744206019,3.861932960117701,-2.555022880982929,-0.2774513026542327,-2.1057036939361735,-3.81617437298535,0.005901359885655814,-1.154134414526238,-1.5707963267948966
12.81830096244812,-0.19474387028074558,-3.7614359002006075,2.4688133878060445,3.8175969953286213,-2.630666433191361,-0.27725983208596744,-2.32638397877895,-3.7479674552618163,0.013252799468482871,-1.1731439355365356,-0.9504760505148813
12.838263034820557,-0.11815878770589408,-3.8151479674103,2.4632885698336913,3.786802014844068,-2.7135142464182125,-0.2763534849144349,-2.5123889944009914,-3.6753908864904674,0.01880598416091914,-1.2045598620724336,-1.5707963267948966
12.85822081565857,-0.005303350080789662,-3.898374613909261,2.4550624663361074,3.7212766528425063,-2.828170868390317,-0.27408483705588405,-2.604768111668218,-3.6442698276880936,0.023229376416884006,-1.2359757886083316,-1.5707963267948966
12.878218173980713,0.06870768341571062,-3.9557105957121097,2.449632145498867,3.6719582437686826,-2.9017898197563343,-0.27202463840654073,-2.6853753284832176,-3.5598116958675425,0.02668914888255689,-1.2516980398103519,-0.7861125601010155
12.898292779922485,0.14160440367858826,-4.014452710808108,2.4441972339365594,3.61744540482739,-2.9721393123220365,-0.27145414280899444,-2.7658876092452607,-3.4750992553302065,0.03040144237577935,-1.273995197729276,-1.1148578959462085
12.918128728866577,0.1776642867778849,-4.044391560790396,2.441577258514793,3.5889179485858307,-3.007380927335434,-0.2684673502731747,-2.8963838474907226,-3.3949980979850527,0.032244235099652255,-1.2873643472689789,-0.6684574769851404
12.938282251358032,0.24885484763110952,-4.105212785704175,2.436214500552414,3.52971503243906,-3.0744710467050775,-0.26780115390779924,-3.0233155034201764,-3.3138440323753082,0.034431607369248475,-1.3107222179036977,-1.1678935317359418
12.958547592163086,0.2839449898432493,-4.1362124721609845,2.4336265279327973,3.4971433384153174,-3.1096063127462465,-0.2649320151776272,-3.0841288749134246,-3.2586777720389075,0.034979209399474985,-1.3253060647071748,-0.7291923401738565
12.978122234344482,0.4212535956593327,-4.263354566161372,2.423191416779816,3.369465397078674,-3.2427633267955325,-0.26015160886868227,-3.2006904574499724,-3.1896900793396843,0.03426890993691582,-1.3567219912430728,-1.5707963267948966
