t,x,y,z,vx,vy,vz,ax,ay,az,yaw,yaw_dot
0.1251661777496338,3.5819511778014794,-2.9324849584838373,2.4893661699206433,-0.1683612104610353,1.5025106440284017,0.028322980142620212,1.0584574318345823,0.1508795306660046,0.005104561228374313,1.2653898683254816,-1.5707963267948966
0.14516234397888184,3.5787933184642062,-2.9024042215607415,2.4899333074623393,-0.14754015235102239,1.5055806524495063,0.028373878170828686,1.0238288594474567,0.15616060451615832,3.569463882807813e-05,1.2459797743465932,-0.9705046989444188
0.16520071029663086,3.576551118860046,-2.872373335676711,2.490558431134898,-0.11485508573768957,1.5058637441865013,0.0297649288183768,0.9827977682509025,0.1710135154440566,-0.004941732576394004,1.238726301703494,-0.36267363215496395
0.18511509895324707,3.5746386533720673,-2.84228233473574,2.491173548452165,-0.08925031453732415,1.5075208532242137,0.030322268092006506,0.9394726145767952,0.20562229733822213,-0.009709459674604315,1.211790487252518,-1.3467907225488185
0.20512604713439941,3.5730388052253472,-2.812088660064692,2.49177774898147,-0.07086881953458786,1.5119504136410187,0.0300828832015464,0.8991755993779447,0.23676381509303915,-0.014180061344898435,1.1974923511715314,-0.7149068040493312
0.2251908779144287,3.572363683524243,-2.782024012710723,2.492423259745224,-0.03912893587300747,1.5112850573323424,0.030869955084748844,0.840312190535427,0.27594394081811885,-0.018465615559636956,1.188173460162817,-0.46594455043569294
0.24509668350219727,3.5719847486992005,-2.7367508021660765,2.4933584123221753,-0.002990619250374042,1.515006012150731,0.03076282650385718,0.7151739375657099,0.38740501859797016,-0.022527489443041032,1.157305414711069,-1.543402272587402
0.2652006149291992,3.5720601492471036,-2.706366215338151,2.4939689065842248,0.010148143208007655,1.5237946294872091,0.030273991890411543,0.6004104986949026,0.4899962389220842,-0.026309940477368503,1.1625674029746804,0.2630994131805675
0.2851295471191406,3.572651851479813,-2.691358654116842,2.4942737689457966,0.028649602349421086,1.5219878495888257,0.030041294319735325,0.5133390816422047,0.5786335969579033,-0.02963327607919445,1.1365942908477695,-1.2986556063455224
0.30556392669677734,3.5733221294680266,-2.6607976275914793,2.4948684590269936,0.0381160517873038,1.5343859182604904,0.029417460351187898,0.434692111176279,0.6599710823929107,-0.032709408351468454,1.1409190415436932,0.21623753479618202
0.32512426376342773,3.5750534620836416,-2.6306321537187967,2.4954392657389177,0.06765417890273133,1.5316647346009558,0.02844321942141949,0.29832467123730955,0.7394511125548426,-0.03528624798004653,1.1096587642607254,-1.5630138641484104
0.3450801372528076,3.577786934729896,-2.584808197747183,2.496265870813708,0.09204411136485702,1.5414378155853272,0.027035630543594674,0.20200403235562092,0.8151257147486627,-0.03746361278119983,1.095665364362051,-0.699669994933716
0.3651738166809082,3.579662313734283,-2.5538117057441676,2.4967989552284107,0.09520708796941703,1.5584414100977253,0.026266196430989035,0.11598930625225665,0.8841359109865421,-0.039448041277961574,1.0966132329478269,0.04739342928878898
0.38511180877685547,3.5811312558499506,-2.5385845862455105,2.4970499062824536,0.11021472376563482,1.5565625276594819,0.025600382054691357,0.046455222179924274,0.9567350993458275,-0.04104882763792844,1.0756396576378142,-1.0486787655006324
0.4051547050476074,3.583340640153131,-2.507257507300972,2.497553605699939,0.1105207820888638,1.5763635385614272,0.024764772523584607,-0.014425841181108748,1.0221894890599394,-0.04248504892548132,1.068677915277438,-0.34808711801881387
0.42508721351623535,3.5862977467078037,-2.4761398374290704,2.4980469360213573,0.12772514112386735,1.582114194550224,0.02410887384289812,-0.11929239658528518,1.0824761684071067,-0.04366202841023394,1.0613502775706785,-0.3663818853379741
0.44507455825805664,3.590483905874823,-2.4285434458898765,2.4987700327864544,0.13477562223301282,1.6050831018111074,0.02337119812567741,-0.2297319998269711,1.1415241383248598,-0.044719764316077125,1.0432407835133688,-0.905474702865483
0.46513938903808594,3.5931267546051195,-2.3962098920663513,2.4992284493304604,0.12918398731661937,1.6284458830171795,0.022467398752387756,-0.3273165586777234,1.193607785826076,-0.04563708378235733,1.049246245356394,0.30027309215125975
0.4851090908050537,3.5961799135502144,-2.3638452868079214,2.499712656471963,0.13453257692080475,1.6411121611835513,0.02267249775497721,-0.4986686843160856,1.1569765325580406,-0.0465598220405474,1.0275931298677676,-1.082655774431318
0.5052058696746826,3.5987603399988823,-2.3307942696036164,2.5001567398302704,0.12300081386992416,1.6638555610512198,0.021733219450401773,-0.6514528919705684,1.1167790707828418,-0.047345471948371694,1.0370506555585832,0.4728762845407797
0.5251915454864502,3.6003334567665184,-2.314282438301658,2.5004036038912987,0.1262217834483339,1.6695998771056402,0.022162511456177408,-0.7697559332101745,1.0511410911785113,-0.04814353925778185,1.0171044990724596,-0.9973078243062039
0.5451598167419434,3.604270380123394,-2.263688069888368,2.5010758367568897,0.11702131643298293,1.7020912881505843,0.02152347200652254,-0.7870862414464391,1.0074973075995337,-0.04887209950564431,1.0110543402302588,-0.30250794211004184
0.565220832824707,3.6064527034080833,-2.2294477181440566,2.5014964898223013,0.10118442053748777,1.7217941712825378,0.020539845350387647,-0.7950682876316025,0.9625836694373429,-0.0494689162751178,1.0130052706912567,0.0975465230498962
0.5852105617523193,3.6087861748128436,-2.1945470129750535,2.5019344356208126,0.09567002188008049,1.7479515648929376,0.020460698918211926,-0.8423923242829091,0.9246204787712169,-0.050017076673124945,0.9970036159221038,-0.8000827384576636
0.6051688194274902,3.610528507523388,-2.159405696937292,2.502333615877429,0.07844306730456861,1.7660462979943614,0.019455913735685493,-0.878452164731707,0.8844994665307302,-0.050441038287554855,1.004177432583755,0.35869083308255334
0.6251475811004639,3.6120295624989582,-2.1235048801203185,2.50274015271132,0.06424116317410217,1.7945600210482189,0.019113522615440137,-0.737360757537938,0.9641574506121977,-0.05076099360515158,0.9874463829928519,-0.8365524795451496
0.6450748443603516,3.6131054032381904,-2.0872934405236383,2.503120589862638,0.04838501377035663,1.8184909816628347,0.018369450694578973,-0.5866689914644067,1.0313124133842464,-0.05096057594581215,0.9844201110062425,-0.1513135993304715
0.6651296615600586,3.613965519681571,-2.0507133380215903,2.503477778803208,0.03810924964017166,1.8397127877007657,0.017349133096041303,-0.4418812315106248,1.089372122592359,-0.05105370921165522,0.9817482651783385,-0.13359229139520146
0.6850965023040771,3.6139514402714292,-2.032177401848527,2.503659854105559,0.022399574181703522,1.8528863357009921,0.017149334499338757,-0.47012492342934226,1.0991386858666023,-0.05105807340962579,0.9743402315325209,-0.3704016822908551
0.7050988674163818,3.614303924411232,-1.9948994577832952,2.5039926336883376,0.012781293564820141,1.8749232606875865,0.01612892775096396,-0.49039254369794133,1.1036980694948297,-0.0509669311858418,0.9646131052077713,-0.48635631623747955
0.7251770496368408,3.6136056661827793,-1.9572150293401,2.504313372908203,-0.01789519687857767,1.8963493630722743,0.015302746178574547,-0.4765848943101267,1.1206180519961693,-0.050688444568099,0.9703059383087478,0.2846416550488229
0.7452836036682129,3.6131536175854886,-1.9190630887427143,2.504609312654165,-0.027246921296156405,1.918881288001281,0.01429241853928742,-0.4577649920019806,1.1315981985420116,-0.05033145136894865,0.9526884681530703,-0.8808735077838747
0.7652256488800049,3.611870449541904,-1.880432756606805,2.5048875667199515,-0.05180430592962144,1.9417824668472063,0.013348370137627377,-0.4081588755898318,1.064043024176487,-0.04977891665187771,0.9609112921197784,0.4111411983353852
0.7850961685180664,3.6097711567186326,-1.821588235581383,2.5052625598154563,-0.07349934068271255,1.977371976071651,0.011761229214554721,-0.2998609248297065,1.0921381486528194,-0.04898462173847632,0.9401125470382805,-1.0399372540748741
0.8054969310760498,3.608248272695192,-1.7818208848151622,2.5054880427042057,-0.0784377073588824,1.9994308933308076,0.010789858176911924,-0.19445390161247084,1.1124796517102973,-0.048145097541764055,0.9373840329257233,-0.13642570562786283
0.825092077255249,3.6070376251588807,-1.7616394428862288,2.5055796690381293,-0.09209240515940541,2.0138780214886878,0.009895395180312084,-0.15098684853165437,1.0684781927741853,-0.047134709722095644,0.9376965560822885,0.015626157828263487
0.8450825214385986,3.6036375196768553,-1.7006410224360784,2.5058355463521167,-0.11308627358415221,2.048076704616028,0.007927709811190637,-0.1759761414287447,0.9707099838789718,-0.04580498680164558,0.9212131475621268,-0.8241704260080862
0.8651120662689209,3.6013392740849,-1.6594917831884692,2.5059850285765615,-0.11679893578843392,2.066526726632718,0.007024969758874399,-0.19417443184793068,0.8745618549994615,-0.044467865094114496,0.9232058363138123,0.09963443758425061
0.8851256370544434,3.5982610131050965,-1.6177149554238741,2.506082920198277,-0.13789362242065178,2.0909558961780585,0.005292898040490067,-0.2329537036896685,0.8290939691332567,-0.042818989449010844,0.9100207866297394,-0.6592524842036429
0.9051294326782227,3.5954543842672586,-1.57573315365317,2.506180323428127,-0.14287065831606313,2.107065843270387,0.004452863820550739,-0.2633766939114786,0.7815640847472294,-0.04118733270794651,0.9034716632251012,-0.3274561702318879
0.9252047538757324,3.593757360269241,-1.5543429724740305,2.5061987066859768,-0.15404660676984105,2.1224096149570544,0.003372967552121845,-0.45828014371741094,0.7242847563377761,-0.03942441499798149,0.9051067756014106,0.08175561881547111
0.9450657367706299,3.5889555758306297,-1.4900264499993643,2.5062616199477805,-0.16726298906484882,2.153206579920694,0.0016345341746011536,-0.5541923051334221,0.7259691443768357,-0.03742612651029689,0.8860219583772455,-0.9542408612082554
0.9650976657867432,3.585493872659384,-1.4468173835853146,2.506286956221798,-0.17917462405033777,2.167681023986659,0.0009055941488616997,-0.6343884150183123,0.7202615524719289,-0.03547584326054874,0.891121685453423,0.2549863538088726
0.9851765632629395,3.583871074842866,-1.424858744010538,2.5062802452412787,-0.17996866095828415,2.182291417589584,0.00018309072798911968,-0.6725308204184848,0.794681369837139,-0.033521965762265064,0.8771050127069717,-0.7008336373225621
1.0051896572113037,3.5801353391115605,-1.3810496375656922,2.5062773303233348,-0.19368647858767993,2.1988261485438603,-0.0004682425355367947,-0.6970075968987647,0.8567634707347231,-0.03161996064650949,0.8736761953408791,-0.17144086830462868
1.0251753330230713,3.576547837850867,-1.336797700129097,2.5062551706733998,-0.19750938915974164,2.2179090034803846,-0.0012015034287579604,-0.7264243947189055,0.87559078486994,-0.029706693836453944,0.8667573447873949,-0.3459425276742367
1.0450754165649414,3.5704831727511985,-1.2699669549273616,2.5062150353279757,-0.2145016924855331,2.241302483158894,-0.0017948703171659199,-0.7725049522810078,0.8858821146849037,-0.027829734073557624,0.8545185656907148,-0.6119389548340015
1.0651590824127197,3.5660363067189236,-1.2249634521666508,2.506173694252628,-0.23028932923285864,2.2590549138408553,-0.0023331705329599343,-0.8038379264575947,0.8880223808676725,-0.026009716347412174,0.855497668703713,0.04895515064990974
1.0851128101348877,3.5638403504436895,-1.2024530244313152,2.5061636547472044,-0.2330163281848932,2.263574400589255,-0.0021594207543125985,-0.6624120527501942,0.7855574989339312,-0.02440230156223842,0.8456778413975075,-0.4909913653102782
1.1051836013793945,3.559056938780472,-1.1570312780083003,2.5061156907277757,-0.2448555218048915,2.2782572559742142,-0.00263177655849439,-0.5216182767283136,0.6826631082148528,-0.02284090359599038,0.8443044663615504,-0.06866875179785126
1.1251182556152344,3.5540790193738365,-1.1113307789655484,2.5060772965153055,-0.25450107201790817,2.2917116907175354,-0.002641385384497071,-0.3688968204390262,0.5632330599753346,-0.021412126616017668,0.8324341158927036,-0.593517523442344
1.1450722217559814,3.5460044560972706,-1.0421135301709097,2.505983222656425,-0.2726250712078766,2.313796633285285,-0.00346131932544452,-0.23189025867492435,0.4255618843300683,-0.01990148124675601,0.8243347637742691,-0.4049676059217244
1.1652114391326904,3.5405146022752927,-0.9957615523238977,2.5059101142762272,-0.27591083676155026,2.3209496500736284,-0.0038446433848465925,-0.09704822486940212,0.2901118556369538,-0.01843887758486389,0.8203416546453237,-0.19965545644726745
1.1851143836975098,3.5373557933964626,-0.9722421009048365,2.5058484515724486,-0.2873410064921263,2.3313394567113224,-0.0046788582614618384,0.01755173973441324,0.1655701362730037,-0.01689366194625503,0.8161917761758368,-0.20749392347434448
1.205392599105835,3.53162005771726,-0.9255904139143024,2.505751595899961,-0.28585496785466585,2.333419891603624,-0.005001743817027881,0.13082933250118425,0.04276542965257819,-0.015404096429605215,0.8054921519220226,-0.5349812126907105
1.2251875400543213,3.5250707945019104,-0.8782217452629096,2.5056010458071327,-0.3037863550450621,2.350576702035109,-0.006477827695001348,0.24675468705581466,-0.08772846830255511,-0.013658911448319606,0.8055144984642357,0.0011173271106557081
1.2450616359710693,3.515521775882207,-0.8072831213663266,2.5053743548897858,-0.3108664505952128,2.3600427748795743,-0.007601037023536125,0.36813049674069903,-0.20812298613039018,-0.011755709068619002,0.7882663966375993,-0.8624050913318193
1.2652459144592285,3.5093860468147438,-0.76013180601402,2.5052201054789163,-0.3023097292881693,2.3546948352575083,-0.007817853191818658,0.48714852686846294,-0.3263002829386521,-0.00994041954554635,0.7894184260388251,0.05760147006128591
1.2850799560546875,3.5059177786538402,-0.7361999357116634,2.5051240395002705,-0.30979727737329715,2.362134747786789,-0.008384693387158219,0.595750814455067,-0.40039607873033184,-0.008155735637258809,0.781954495209642,-0.37319654145915315
1.305138349533081,3.4998481160265706,-0.6890423145162025,2.5049548290920987,-0.29681413817704616,2.35337677383729,-0.008530689167702131,0.702204939764221,-0.4755739054876686,-0.006458228221513616,0.7755394902511608,-0.32075024792406204
1.3251490592956543,3.4932520051621054,-0.641420169483954,2.504775136563507,-0.3019795015475865,2.3590906376669887,-0.008778211315745814,0.7882861290418832,-0.5611432589336254,-0.0048397651178154165,0.7686669394346892,-0.3436275408235767
1.3450441360473633,3.484067255525898,-0.5705547945942828,2.5045227415234734,-0.291314221002692,2.3518060249666806,-0.00850538833206283,0.8553727451178619,-0.5784081543568439,-0.003388324419138418,0.7554639278729001,-0.6601505780894579
1.3651556968688965,3.4784165551703525,-0.5236357633276388,2.5043520490570943,-0.273529753509153,2.3400225326259374,-0.008559272626329042,0.9231898829218004,-0.6007757139233818,-0.002012594847608195,0.7529343656610843,-0.12647811059078862
1.385105848312378,3.475367040534131,-0.500060561264187,2.504292483601798,-0.2736307362913168,2.338858174328095,-0.007806525234428366,1.0068254572616182,-0.6851446351986983,-0.0009605047443528642,0.7483703556457231,-0.22820050076806098
1.4054632186889648,3.470101329880808,-0.4534260370203283,2.504136228361468,-0.2526640075417716,2.32431399703063,-0.007815676249208366,1.0897213494654316,-0.7692196515804676,3.627874453687291e-05,0.7378059576328364,-0.5282199006443333
1.4251246452331543,3.464794158482715,-0.4068987969657345,2.5040332943635164,-0.24159647971053275,2.3128493074294076,-0.006442803605277091,1.1873182733696637,-0.8782885422600123,0.0006107028149734106,0.7347100788902234,-0.15479393713064837
1.4451160430908203,3.457832998168359,-0.33777674859225715,2.5038855891381746,-0.21175668443070933,2.288207277574667,-0.005107428072792061,1.3326216888362015,-1.1343880447719243,0.0008350037075326855,0.7177495681118282,-0.8480255389197611
1.465193748474121,3.4538737632530405,-0.29225587323421964,2.503783622164649,-0.1837032428844136,2.2630718490219333,-0.005088545994910732,1.4716927569797662,-1.376915315669025,0.0010519902021003886,0.7171288707895371,-0.031034866114554305
1.4851129055023193,3.4518881285497027,-0.2694621886091761,2.5037892905946735,-0.17438860836326395,2.254524437874041,-0.0034330166407937185,1.5826170234633026,-1.579016088081889,0.0008430931132617702,0.7108819534052198,-0.3123458692158687
1.5051734447479248,3.4487240428297867,-0.2247004270024403,2.503720785940446,-0.14166564155473238,2.2210145834219635,-0.0034180795971537592,1.688914908467002,-1.7701615103352335,0.0006538394268609898,0.7011595682884297,-0.4861192558395011
1.525167465209961,3.445707836666607,-0.1797215115470011,2.503776083600492,-0.12059765697960444,2.207818259862644,-0.00023389875479836673,1.7195206754245924,-1.8927589059007315,-0.00030051009393248514,0.6963352195705368,-0.24121743589464728
1.5450985431671143,3.442610261445977,-0.11373609276939733,2.503870560218505,-0.07560061796846575,2.1668652721517097,0.0026621482890854236,1.7552946166427814,-2.0196326539957643,-0.001896548133707741,0.6796739764311792,-0.8330621569678787
1.565293550491333,3.441451705787169,-0.0708107209290182,2.50392332306929,-0.04013486092909052,2.1252789837624024,0.0026091885660228633,1.7913201352846264,-2.1375144810615363,-0.003381059812309911,0.6777977489337608,-0.09381137487092239
1.5851085186004639,3.4410651719556147,-0.04925303203450264,2.504046230450689,-0.023396923346907787,2.114627195619087,0.005295423561631726,1.867020496443205,-2.211889105001441,-0.0053602114100628675,0.6720357479353214,-0.2881000499219688
1.6052021980285645,3.4409755747814526,-0.007407535966261712,2.50415094205615,0.01468225230719739,2.069693654908402,0.005169612890990186,1.940534829038883,-2.2805181500803684,-0.007197496494599008,0.6616208301946185,-0.5207458870351456
1.625110387802124,3.441664744973902,0.033996159411739106,2.5043821613779422,0.05410502124290857,2.0352180664777597,0.008205119124481195,1.9780682189080865,-2.259759031364743,-0.009593970680183984,0.6542148559835952,-0.3702987105511646
1.645097017288208,3.44422018772318,0.09412456917166886,2.504703414613847,0.11537223161609587,1.9699877450616623,0.01015452621584947,2.0542571853177773,-2.2025238313955273,-0.01231029631220645,0.6366559032626653,-0.8779476360464944
1.665149450302124,3.446943541955185,0.1330873131187103,2.504903872098964,0.15721572511491455,1.9264560596508085,0.009882839508027983,2.130016419926815,-2.1516978096090025,-0.014825214174981973,0.6331825961742443,-0.1736653544210487
1.6851370334625244,3.450599120636366,0.17094834617142207,2.505192828062581,0.20227603382690473,1.8765867870333526,0.011815976398505812,2.1862008203680645,-2.153230449097766,-0.017547039264633083,0.6191083623728559,-0.7037116900694196
1.7051634788513184,3.455085636815722,0.20804921440606364,2.5054254673562615,0.2465634865327252,1.8334870199555733,0.011439586377351848,2.242570597867814,-2.157133891461687,-0.020057103819018193,0.6123265187256388,-0.33909218236085614
1.725167989730835,3.4577048310775025,0.22594273297900974,2.5055719817668782,0.27065058224214383,1.8023385224316293,0.012119212571571862,2.2881133711757697,-2.1503919108638443,-0.022421818461290578,0.6077013848589812,-0.2312566933328819
1.7450716495513916,3.4668957047244304,0.2786933281909887,2.5059419415951467,0.34094380542289837,1.7293174664282327,0.011864766613026509,2.329435231716489,-1.9584890674036888,-0.02457834764228478,0.5839566260175242,-1.1872379420728496
1.7651493549346924,3.4741832618749147,0.31289989552673136,2.5061741870233805,0.38795222847883004,1.691920647075368,0.01135322115012098,2.371529651183006,-1.7840672669869082,-0.026544946244437755,0.5811390203504749,-0.1408802833524625
1.7851080894470215,3.4825680652210305,0.34559264779021653,2.5063731598052668,0.4388281753937058,1.6370554944925761,0.010052780894025889,2.319676914361704,-1.5884448766616435,-0.027947486683488437,0.5628581561180903,-0.914043211619231
1.8053252696990967,3.4918054731437005,0.3780281733166968,2.506568539919786,0.48476406037923303,1.6070869074025735,0.009481053365224687,2.2751061462489384,-1.4114817027219062,-0.029200710560875417,0.5566862583736696,-0.30859488722103645
1.8251965045928955,3.4969260661099866,0.39323223526050594,2.5065889027604022,0.5103097554281956,1.5718221862041628,0.006980043953881168,2.0349309375608593,-1.1934780576674644,-0.029632160595564352,0.5490341852636162,-0.38260365550266684
1.845240831375122,3.5075242883451847,0.4244435448944754,2.5067225530520103,0.5487817993015327,1.549970884337942,0.006383852996746794,1.8157209618722614,-0.9948375624998929,-0.02997186835467534,0.5381502948614219,-0.5441945201097198
1.8652541637420654,3.51959850241221,0.45358853675919,2.5066420010969153,0.6034667778392112,1.4899068879495516,0.0005023635188787284,1.6308652058382875,-0.7968848871107042,-0.02874165531168041,0.520460972976625,-0.8844660942398441
1.8850722312927246,3.5392636129538957,0.4967837526776313,2.506441059210603,0.6748987782657876,1.4341647995610345,-0.006240004630659775,1.4653526515336759,-0.7176348728056204,-0.025922408226218576,0.5003449608502306,-1.0058006063197178
1.9055216312408447,3.5530443818796473,0.5253283161759089,2.506311256627045,0.7026766891584795,1.4205232534874503,-0.006731252505238234,1.3149185063835123,-0.6481193459531063,-0.023222006187908102,0.4998163491561267,-0.02643058470519488
1.9252147674560547,3.561004270940541,0.5385452921164484,2.506010932423223,0.7397663007666779,1.3870512410913023,-0.01354841164035902,1.2255011014549846,-0.6749867567096218,-0.019048697956463467,0.4837846908799004,-0.8015829138113162
1.945068359375,3.5846540336466766,0.5791435410136031,2.5053853240725634,0.8017171099508174,1.3476423692565092,-0.020002578078399127,1.1882069126860126,-0.6243514450499809,-0.013547404059509762,0.4658474826158785,-0.8968604132010949
1.9651496410369873,3.600923883351502,0.6059744831944769,2.504982914204401,0.8251669411840551,1.3355933705195895,-0.020221106556654593,1.1579275484752611,-0.5818909485824262,-0.008356637532546394,0.4641318085373243,-0.08578370392771095
1.9851083755493164,3.618659259958522,0.6318904170688121,2.50435059136928,0.8725205835976847,1.3068534411878348,-0.02575076479684021,1.1722756164036805,-0.6665070680170929,-0.002255413814917996,0.4452424674111155,-0.9444670563104385
2.0054197311401367,3.6363452640417133,0.657888608659863,2.503835513189714,0.8961396377599005,1.2926880218888677,-0.025737948531136253,1.1902172289452995,-0.7498156124940453,0.00347611243671463,0.44441751688454767,-0.04124752632839179
2.0251667499542236,3.6457629644182963,0.670537762076897,2.5034890897078284,0.9194581323787712,1.2773710701720826,-0.02809756950788732,1.2505657669617931,-0.9193477223817146,0.009180249468587358,0.4343438099833925,-0.5036853450577583
2.0450453758239746,3.6740885345095298,0.7085410508987412,2.502601382471172,0.9619771898746634,1.2516042999941586,-0.02909547074404072,1.2813640589972333,-1.1025762808503485,0.014778441209217785,0.420036994958922,-0.7153407512235255
2.065178394317627,3.6935863840608536,0.7333409106810769,2.5020227833393305,0.9879090727910249,1.2278044403058777,-0.02874701903189779,1.31175626098063,-1.2757510615499212,0.020005606488973666,0.41312956689705693,-0.3453714030932531
2.0851147174835205,3.703583435739316,0.7458992919300251,2.501730110441033,1.0024806669284987,1.223950995510347,-0.028597003431280004,1.3258490136142376,-1.4378178647501707,0.024609006640761835,0.41173020306887587,-0.0699681914090533
2.1055221557617188,3.723899186685809,0.7700804147754422,2.5011633826414363,1.0291432784775125,1.1936523735677038,-0.028061523323807784,1.3405038454781912,-1.5904957522445138,0.028885096886227278,0.3974470299861643,-0.7141586541355771
2.125114679336548,3.7446873252795205,0.7947195861675856,2.5006538211907268,1.0541924623646861,1.1881999105328294,-0.026198218752180088,1.3384135965655017,-1.7560128714122563,0.032272447816577544,0.39442378683850654,-0.15116215738288918
2.1450235843658447,3.7768380738760023,0.8304085131108215,2.4999374678539965,1.0920632117307265,1.1579479949851574,-0.023598570478275568,1.3329491388538879,-1.9229829473687885,0.03485712812987611,0.3767891487215915,-0.8817319058457507
2.16519832611084,3.7989456375117947,0.8531723921839091,2.4994726290381273,1.1186798403056415,1.1179263461350688,-0.02287743587909119,1.3289549059638368,-2.077057820615595,0.037219789095402564,0.3672415345709479,-0.4773807075321823
2.1851112842559814,3.8214453823059507,0.8763549991547898,2.499128244933351,1.141489777282036,1.107302169245546,-0.019462652586266352,1.3014972615604992,-2.0923859535004135,0.03848914392795375,0.36236158663558093,-0.2439973967683473
2.2055675983428955,3.844533779768904,0.8980816050629926,2.4987467669317427,1.1672672745012356,1.06531142718975,-0.018681408074176623,1.2766876837336203,-2.106484505756219,0.039611059067509405,0.3458506916342441,-0.8255447500668422
2.2251503467559814,3.8561766576000616,0.9093403759306499,2.4986406782632624,1.176683636287832,1.062869777422605,-0.016016974789304327,1.1913640615446588,-2.254728400697712,0.039912109231151266,0.3508579477298932,0.25036280478245576
2.245088577270508,3.891996524225892,0.9408001412844584,2.498253904479082,1.2116940970966366,1.0108599081141136,-0.01266406343975383,1.1403956299934015,-2.386589757701435,0.039452974206293394,0.32449658207569243,-1.3180682827100387
2.2651526927948,3.91645535017222,0.9605318151684749,2.498008481058784,1.2340360562427002,0.9619067746509968,-0.01187995081197507,1.09466090995252,-2.5068061217098414,0.038951333458020584,0.3162204876323611,-0.4138047221665664
2.285134792327881,3.9288832318975464,0.9705673776294309,2.4979666010133728,1.2457563787591237,0.951757799008903,-0.009352856408687025,1.070205552188392,-2.5626695597750837,0.037844447597343296,0.3145829517640988,-0.08187679341311593
2.3051669597625732,3.9540109346846597,0.9890865489120503,2.497787038991935,1.266943303477227,0.8999912899635858,-0.008607034453732858,1.0490250786913606,-2.6130834131041834,0.0367378413951908,0.29480766732125163,-0.9887642221423576
2.3251233100891113,3.9796728076917036,1.0074309489961402,2.4977544808515644,1.2905118855915974,0.8684684249491559,-0.004548918142449022,1.0330293341803876,-2.6722054662703414,0.03472243660168455,0.2872189680961852,-0.3794349612533221
2.345102071762085,4.018879384972452,1.0327112196940254,2.4977221557267812,1.3217136564855088,0.7998870717729202,-0.0010060708903137751,0.980447451666769,-2.7169049722140444,0.032044480189289466,0.2611697105561608,-1.3024628770012203
2.3651669025421143,4.04550649800461,1.0481628736482442,2.4977082701028888,1.3408393712227693,0.7451474966379136,-0.0003910570440946988,0.9329626168120194,-2.756155259853455,0.029474783854654452,0.2487826851417756,-0.6193512707192594
2.38512921333313,4.058958820892718,1.0557481569043343,2.4977835997098072,1.3493742552567003,0.7244465679531406,0.0020577210082545583,0.8471590061891124,-2.8273597154278867,0.026554419355761846,0.24549996171740007,-0.1641361712187761
2.405337333679199,4.0861103821388545,1.0696672519856372,2.497829876993478,1.3655200792394475,0.6672510153032978,0.00256071631064225,0.768618966909013,-2.890940248045547,0.023767061462924323,0.22246448090686544,-1.1517740405267318
2.4252147674560547,4.1137090364936375,1.0827298567569021,2.4979804485819748,1.3836660433955739,0.6165543103638128,0.005320135789978356,0.655206009647565,-2.898703168901086,0.020567714959499675,0.2095728730769819,-0.6445803914941761
2.4450676441192627,4.155710999642637,1.1000360029109442,2.4981982006120496,1.408193672294631,0.5326827525704427,0.0072923628472448335,0.5451310932754656,-2.8909900967097495,0.017149679484646133,0.17815694654108416,-1.5707963267948966
2.4651291370391846,4.183977057876021,1.1101121165357926,2.498347259026763,1.4180782442350195,0.4749637744906642,0.007602689453673433,0.4449548436930723,-2.8804420988686927,0.013912864293323791,0.1635589979797043,-0.7298974280689929
2.4851136207580566,4.198419524348306,1.114715291093373,2.498454932589524,1.4288270149667708,0.4453860940669559,0.0085344509500917,0.3788076373971405,-2.939487726148569,0.010794409275211898,0.15535717671576066,-0.41009106319718214
2.5052425861358643,4.227067799346071,1.1230315803624675,2.4986275813158083,1.435805432779446,0.38607267053498623,0.008720606578859848,0.3202886567153339,-2.990539925729345,0.007849816628701546,0.13206449147548094,-1.164634262013986
2.525127649307251,4.256318088661933,1.1300531160881928,2.4988178160059187,1.4538863449465693,0.32383228498993905,0.00916498057608336,0.33820082675546975,-2.978763132757454,0.0050955465492330656,0.10932926058347237,-1.1367615446004287
2.545088291168213,4.300268312624223,1.1383308616501404,2.499098685553184,1.468965514906271,0.23157067119582372,0.009403018911079294,0.3528837505402357,-2.9759197783451117,0.0024895766557875717,0.07791333404757461,-1.5707963267948966
2.5651001930236816,4.329719286224031,1.142367445195303,2.499287078008117,1.4761879328830114,0.17210808663134763,0.009428064565726474,0.36970884736689946,-2.96980031630785,4.091300593064447e-05,0.050903313067816924,-1.3505010489878844
2.585092544555664,4.344523030062759,1.1437831845531148,2.499379173846393,1.480995176524474,0.13805154862462188,0.00931689583367383,0.45803671123406253,-2.941580584414135,-0.0021050640428335906,0.040569415805018494,-0.5166948631399215
2.6053943634033203,4.374240285489461,1.1459580612291465,2.499564954555335,1.4910152171889466,0.07954880122216203,0.009254478369902902,0.543492846780218,-2.9077789302915433,-0.0041141233720686145,0.01233343696543221,-1.4117989419793142
2.6251378059387207,4.403889496068065,1.146606030693944,2.4997256607058924,1.494505763734161,0.012093752672830712,0.008528024923518594,0.591912576876806,-2.8977806551911276,-0.005733953003293617,-0.017747852722060475,-1.5040644843746342
2.6451475620269775,4.4486400830052295,1.145359630687573,2.4999472671698793,1.501628228764313,-0.08375309580638163,0.007416767528746695,0.5268942633626388,-2.9180317745550317,-0.006972161486924067,-0.04916377925795823,-1.5707963267948966
2.665170669555664,4.47877401581958,1.143100105395842,2.5000941300331556,1.5115698446072208,-0.142234200375899,0.007265689933018557,0.46832909410338,-2.9284666847571637,-0.008120856772241204,-0.08057970579385598,-1.5707963267948966
2.685222625732422,4.493625678424149,1.1412520684135163,2.5001279127240585,1.50806013830864,-0.17949378843259484,0.006078624143771164,0.43995204023154844,-2.9403788159329243,-0.008833983543365115,-0.11199563232975374,-1.5707963267948966
2.7053682804107666,4.523873201554175,1.1370737898431842,2.5002476738873876,1.5166123117889776,-0.2383427638198688,0.0058953156721710245,0.4159911279986181,-2.942992002474313,-0.00948696350254398,-0.1434115588656515,-1.5707963267948966
2.725146770477295,4.5541057287777,1.1314057049433213,2.5003101705299082,1.5187140010218092,-0.30390921633612844,0.004394372026583844,0.18163885444228167,-2.8331575940779095,-0.009692868608893722,-0.17482748540154924,-1.5707963267948966
2.745098352432251,4.599812469144685,1.1207831607375738,2.500406685086409,1.5246421674450674,-0.39485756867123406,0.0032040533477456596,-0.041630124849814217,-2.7285089291451805,-0.009608705180702646,-0.206243411937447,-1.5707963267948966
2.7651848793029785,4.630283020754844,1.112347312505391,2.5004688506288586,1.5217298143679396,-0.4483765680220583,0.003012821625234219,-0.2465913831398408,-2.6233041351182615,-0.009512493692869318,-0.23765933847334475,-1.5707963267948966
2.7851181030273438,4.645731504728739,1.1074111017480608,2.5004455582848064,1.5236114507755014,-0.48325060553224697,0.0013383326054788379,-0.5967164212043953,-2.5404400839382566,-0.008996174811038461,-0.2690752650092425,-1.5707963267948966
2.8052361011505127,4.676062450852012,1.0972436432205155,2.500470559319958,1.5084092408451517,-0.5332112709114333,0.0011634385291900875,-0.9189037209422543,-2.4552493211638913,-0.008495885105803529,-0.2876366789240561,-0.9280706957406792
2.825136661529541,4.707120633383832,1.0853626802523928,2.5003576845767657,1.5137251252091657,-0.5981786465925709,-0.0024403537792257353,-1.4637463200139442,-2.162724954806419,-0.007128155441729394,-0.309430694066001,-1.089700757097245
2.8450746536254883,4.753051780646831,1.0658366020768462,2.5001757476076145,1.5029178556112774,-0.6778386446306098,-0.005688488819854165,-1.612004053728567,-1.8005485089007833,-0.00505163252326668,-0.33643388342204084,-1.3501594678019924
2.865140199661255,4.782778509331143,1.0519430071711557,2.500061099857117,1.4693044275508556,-0.710370591842324,-0.005769768739747568,-1.7471847322732084,-1.4554665276617622,-0.0030963406664137674,-0.3462289967494754,-0.4897556663717273
2.885122776031494,4.798532852728083,1.0439740490738647,2.4998752618822935,1.483008297327851,-0.7455367462123508,-0.009482353866159678,-1.875442027985549,-1.1717444270351953,-0.0004150428474790258,-0.352774867731926,-0.3272935491225315
2.90510630607605,4.827810083913455,1.0288472109782067,2.4996857021324086,1.4443340729949194,-0.7662458081648089,-0.009465242840458852,-1.9896724664949306,-0.9013635132249032,0.0020985053408827323,-0.3642182001411558,-0.5721666204614895
2.925152540206909,4.857725092632006,1.0114143483313696,2.4992487539285757,1.4385809003295218,-0.8308125569513081,-0.01570358982228309,-2.0266400387449925,-0.6545597223663344,0.005947700482725382,-0.3836271502592479,-0.9704475059046036
2.94512939453125,4.900506802485982,0.984897895428388,2.4986236107962956,1.3921410332987436,-0.8873694493972587,-0.019857735747514902,-2.0520385949711772,-0.676761309489176,0.010590251886113266,-0.40320352341668464,-0.9788186578718383
2.9651412963867188,4.927937907048211,0.967013993974483,2.4982288679643405,1.350910318368498,-0.9010734681326079,-0.01960211361997433,-2.0697735445470005,-0.6925963220465887,0.014920521874738479,-0.4080916097436851,-0.24440431635002202
2.9850914478302,4.941558000036139,0.9570581551213363,2.49793719049802,1.3354282591083688,-0.9322733325871463,-0.022042709139106314,-2.117821468313702,-0.6055218618980281,0.019370226475924696,-0.41834929176947133,-0.5128841012893126
3.005171060562134,4.967840403650484,0.9382972576097259,2.497500491114882,1.2926921786745493,-0.9435349254129758,-0.02161345284662226,-2.1538042742244374,-0.5210736114518209,0.023503250460700457,-0.4256182834227702,-0.3634495826649431
3.0251595973968506,4.993322927989261,0.9186157816374221,2.4970395295114947,1.25133087122936,-0.9694676673913952,-0.021671566359941764,-2.0748227063790003,-0.3820252690592631,0.02722202132085837,-0.4391496481032706,-0.6765682340250212
3.0450758934020996,5.029791001626342,0.8890704753337295,2.496441250911851,1.1853111109807222,-0.9880138185119197,-0.01964830241263297,-1.9973672623262753,-0.2476461821851688,0.03021728742015587,-0.45258628101891496,-0.6718316457822171
3.0652973651885986,5.0531030596611295,0.8692693837300677,2.4960545155982743,1.146162526816554,-0.9916636872015104,-0.019016069029224373,-1.9170189558843538,-0.11814866261216764,0.03296536451940441,-0.45649521885715627,-0.19544689191206555
3.085092544555664,5.064136630898793,0.8590847131283589,2.495909933432863,1.1190483583171276,-0.9996719989900049,-0.0174447809276005,-1.6814606192737087,-0.04428412830521012,0.03497200906779654,-0.4628095263919132,-0.3157153767378462
3.105384349822998,5.096275492617984,0.8287458168477213,2.495429370822629,1.0511245391293274,-1.0098948983630278,-0.01565015680542633,-1.3763337854709783,-0.013157534307229775,0.03645445561636786,-0.4784703236414667,-0.7830398624776747
3.1251564025878906,5.117042488392822,0.8085472885876893,2.495123749117643,1.026554217071999,-1.0098590884628023,-0.014907622825412048,-1.0825768613997238,0.016494579235697058,0.037771789024253086,-0.47674247007624704,0.08639267826098251
3.145047903060913,5.135798318968123,0.7881666305176092,2.494818599414155,0.9684366531422041,-1.0137038764917732,-0.014694853792317632,-0.6010108324947447,-0.03476756839505815,0.038889754705371704,-0.49314323900656554,-0.820038446515925
3.165215253829956,5.155077664804837,0.7678825357260723,2.4945325474033386,0.9610174413329278,-1.014852980584901,-0.013907113330293536,-0.14514841814932847,-0.078984041175941,0.03986000977176308,-0.48646900576956487,0.33371166185003354
3.185140371322632,5.163216859439321,0.757917787326084,2.4943341754854846,0.9209174543368345,-1.0094528871975597,-0.015342171022321579,0.2835501246377546,-0.045190911537176685,0.04104867878265348,-0.49864714880814276,-0.6089071519288947
3.205112934112549,5.181719326810413,0.7377219594110378,2.494035613168645,0.9306804014513401,-1.0100162624252529,-0.014510621561018028,0.6888941199133349,-0.01109874098065234,0.04208048050551071,-0.48794080233806847,0.5353173235037145
3.225236654281616,5.1972894239585825,0.718134931410529,2.493595376341463,0.8675621735150507,-0.9951360459778655,-0.017671190454874117,1.0850145864691023,-0.061049052425994906,0.04380495811943374,-0.5068424918830039,-0.9450844772467715
3.245056629180908,5.221643382939383,0.6887021167011184,2.492987060597554,0.8413803075977045,-0.983801365585818,-0.01907532356280694,1.4099334010407851,-0.031187721986231754,0.04585443479599561,-0.5000514289321689,0.33955314754174903
3.265228509902954,5.238773778661849,0.6690218267237419,2.4926148505022017,0.8726852615559,-0.9841291490711048,-0.018139594517415498,1.7177381776053062,-0.0016426626132046204,0.04768196930475627,-0.49175215267232186,0.41496381299235274
3.2850823402404785,5.25372033779774,0.6499927580323624,2.492199092959208,0.838807229077055,-0.9680912262218027,-0.018424762687521894,1.980624375024232,-0.007261620160116358,0.04937802562718079,-0.4999615863865836,-0.41047168571308745
3.3051869869232178,5.270909400419937,0.6306292249021228,2.491840575963675,0.8809266206219165,-0.9682729568268137,-0.017421975231453984,2.228905618447257,-0.010523630490145184,0.050866609618587764,-0.48111382665613833,0.942387986522264
3.3251681327819824,5.2782414077020485,0.6213495365992692,2.4917177590473445,0.8600792566271722,-0.9567421019434594,-0.01536060596828216,2.399954090945892,-0.004450101913861371,0.05160697918131627,-0.4920058744159843,-0.544602387992299
3.3450944423675537,5.303712183854814,0.5930758112197354,2.491395464710897,0.8940353765022558,-0.944666053916664,-0.010394441940366527,2.574320895566241,-0.019944854065806965,0.05112895827193463,-0.469930947239094,1.103746358844515
3.3653995990753174,5.322118871939557,0.5741776580321253,2.4911977659855857,0.9471808817165507,-0.9451883073789468,-0.009377276764760752,2.7385593805220094,-0.03165940347120501,0.05057515055823163,-0.4620208499975429,0.39550486207755586
3.3852782249450684,5.33073242060478,0.5651653532973073,2.491276270544216,0.9488403548195085,-0.9345210777101824,-0.003956199956162066,2.971120994955801,-0.232953698768925,0.04864332717703917,-0.46120188806362794,0.040948096695747616
3.405177116394043,5.35968635377337,0.5376193269336911,2.491388218150352,1.0158604622198784,-0.9226499654621504,0.003514444658226411,3.1715174418927163,-0.05200226026895229,0.04503584352612532,-0.43608156630212846,1.2560160880749738
3.425137519836426,5.3806504646828985,0.5191674783377863,2.4914672802775133,1.0811680081354318,-0.9219657729896592,0.004380179743933797,3.356737154766577,0.11873770292637871,0.04155931397964674,-0.42750828437160227,0.42866409652631
3.445143461227417,5.3910369487143655,0.5104671766449099,2.49177153296547,1.099552928834364,-0.9046483722958976,0.0142098653972197,3.504077679867196,0.36144695796984505,0.2834723324120198,-0.4198503929696118,0.38289457009952343
3.4654347896575928,5.413738056481082,0.49246192747683126,2.4921275758096892,1.1710098392794213,-0.8951174720069002,0.022135909826137622,3.639679655653812,0.589174362882122,0.5059271949511253,-0.40032425697703644,0.9763067996287678
3.485302448272705,5.437152980602134,0.4745862679005618,2.49277961408575,1.2271894601655253,-0.8871202933789265,0.03274904420517873,3.7160478288018037,0.6273850147192388,0.384115403048702,-0.3910329957963543,0.46456305903410655
3.5051496028900146,5.475515017487375,0.4478871005471919,2.4939769117648423,1.334995420380228,-0.8778158137338382,0.045652251575426295,3.6150746160590317,0.737202149164892,0.33568417734347084,-0.3658167314986973,1.26081321488285
3.5251758098602295,5.502931514621381,0.43048521715213206,2.494953987780706,1.4063379941434082,-0.8620283158472313,0.05190208208358922,3.5201821372343165,0.8404674898302761,0.2897029473977676,-0.3546928043219437,0.5561963588376795
3.5451719760894775,5.5174569786264565,0.4216034945643786,2.4956519707301847,1.4499347998887946,-0.8611045536425799,0.05912155981737589,3.452203852711565,0.9589632888147814,0.24703867675812013,-0.3492839797411986,0.27044122903725487
3.565246820449829,5.54714176373195,0.4045807202547618,2.496881077933495,1.51832908165407,-0.8408028554394661,0.0636544279737766,3.3878133659821223,1.0699726191977175,0.20661812066010227,-0.330915186441163,0.9184396650017801
3.585219383239746,5.579282999605823,0.38750096749012014,2.49845425542475,1.6137007657859646,-0.8307274235759922,0.07374183292693318,3.300631776065783,1.1262925078163202,0.1680137673476961,-0.3169947104583475,0.6960237991407769
3.605158567428589,5.630102705438459,0.3628334812330868,2.50085617748824,1.738846425758607,-0.8028664024518777,0.0816288814077988,3.247985580075748,1.262858807089627,0.13075046309470298,-0.2922416550032225,1.237652772756248
3.625121593475342,5.665525864160738,0.347037366363815,2.5025125271105093,1.8033034400013157,-0.7763206343390838,0.08388892309083719,3.1981821403901414,1.3901973007963924,0.09560237060818062,-0.2821163782998113,0.5062638351705617
3.6451363563537598,5.684666793112954,0.3391133580177418,2.5034153914744874,1.8618878183553225,-0.7678359152419655,0.08616790145692253,3.1460273432695507,1.5353788152004977,0.06387089619818546,-0.2743596795761749,0.38783493618181897
3.6653435230255127,5.722530414972885,0.32407287271940916,2.5051495029914577,1.9243096125864723,-0.7357633343062191,0.08714377511579253,3.096599396109825,1.670166867242604,0.034027654816921195,-0.2581124756287152,0.8123601973729855
3.685314178466797,5.763111566031284,0.30906886596093264,2.5069744965142062,2.022892491532566,-0.7178434284284098,0.08936227272291565,3.079000942303035,1.7157287920484254,0.006817704969408361,-0.24543134287253165,0.6340566378091772
3.705144166946411,5.826093842424397,0.2879116861694487,2.509673009678411,2.1408080133199414,-0.6767848141354338,0.089707693556888,3.046050821474717,1.7794413181162834,-0.0184133511738612,-0.22338585509498454,1.1022743888773556
3.7251381874084473,5.8695169929952495,0.2747357840391656,2.511461880837281,2.2013956722628447,-0.640615717772827,0.08910076988544724,3.012639655431924,1.8363485423707906,-0.04200971394065592,-0.21210941817210038,0.5638218461442079
3.7451188564300537,5.8925027196920405,0.268184233276366,2.512330226136185,2.254495037395005,-0.6285412057099034,0.0878496216421985,2.975703339831251,1.8546081633421327,-0.06253114074986808,-0.2063630415653228,0.2873188303388785
3.765213966369629,5.938185261288443,0.255985240713232,2.5140734155307944,2.31363352506629,-0.5913175981282823,0.08640564986337232,2.93802480181559,1.8667467757048934,-0.08163208664205238,-0.19115324192703698,0.7604899819142918
3.785161018371582,5.986204174181148,0.2443741050756474,2.515741306589937,2.4006565159463165,-0.5571674195973957,0.08346502390778236,2.8896305548118555,1.879369237221478,-0.09793678987593481,-0.17761693174597637,0.6768155090530303
3.8051340579986572,6.060200240137186,0.22856134993473665,2.5181504690824346,2.5061797190013957,-0.49838356058805877,0.07891970547705011,2.849992087553255,1.9523325274998147,-0.11208234529728053,-0.15560371070147472,1.1006610522250826
3.825122117996216,6.110891192973062,0.21898872196365698,2.5197055597859443,2.562783609903172,-0.45865513180198925,0.07654594029468212,2.810405683382006,2.0195660798962924,-0.12511017739351948,-0.14454971050381982,0.552700009882745
3.845132827758789,6.137261635601986,0.21458851494234998,2.52039112983239,2.6095590644496425,-0.4361151344727139,0.0726039859399957,3.0143516344723413,2.009294773037074,-0.1934291382159992,-0.13719958968630896,0.3675060408755426
3.8653507232666016,6.190068256463889,0.20626729579258057,2.5218002274728923,2.6717146050722826,-0.3960470343981224,0.06809521242372386,3.1978352815073965,1.9972196082266849,-0.25660096573097657,-0.1232327772528179,0.6983406216745536
3.8852791786193848,6.244627891074938,0.19884688737399114,2.523096689171818,2.7466535438134922,-0.3530094510646073,0.06258699374976948,3.279752234719863,2.020923825786339,-0.3091636526863883,-0.10927558697306106,0.6978595139878419
3.905170440673828,6.32839922919569,0.18932506512164343,2.5249271349189133,2.8421908795351265,-0.2871741637192712,0.055646554026718115,3.3353779300702047,2.088921535668706,-0.35468909260394116,-0.08804332028894413,1.0616133342058465
3.9250710010528564,6.385913276329205,0.18400351239947885,2.5259662936076173,2.9093624311516186,-0.24478015046859622,0.04813087934764029,3.3799621662038333,2.1492123534620275,-0.39622146092137883,-0.07575773345303904,0.6142793417952541
3.9451615810394287,6.414969673138325,0.18183660284966305,2.5265326699288817,2.9373345763081735,-0.21795469674606757,0.04684834833388581,3.392535490244883,2.19770555538902,-0.43076993005465586,-0.06809258945051777,0.3832572001260637
3.9652259349823,6.474395278142539,0.17791995413428663,2.527381352117744,3.0052391613118195,-0.1735703664139526,0.037916162606492505,3.396510809914357,2.239651038025309,-0.4618838382945333,-0.053834806305157024,0.7128891572680374
3.9852752685546875,6.534859563994292,0.17502701032782952,2.5282340406281034,3.064688598956664,-0.12650601704702633,0.0334906436993149,3.293218531729472,2.137298309266515,-0.4307017458458478,-0.03947381119505611,0.7180497555050458
4.005189657211304,6.628236231602061,0.1723368890093076,2.52909129110421,3.1616960646313554,-0.05861846012987145,0.02191183970873151,3.1885150363367143,2.0560947200428346,-0.4000195466514531,-0.018381331986672578,1.0546239604191765
4.025131464004517,6.692100857251728,0.1715703644949408,2.529451510423476,3.2244162908620995,-0.018302043227603097,0.014208439374622378,3.0834532740727005,1.9756793449528915,-0.37051505663977147,-0.0057353491710663285,0.6322991407803125
4.0452024936676025,6.724587052804637,0.17176676729918006,2.529515575413473,3.256646256336562,0.009127158153062285,0.008839826304534693,2.927839651610953,1.9069455979399836,-0.342777031334152,0.0024950753862862385,0.41152122786762835
4.065232038497925,6.790295399754817,0.17232625481363634,2.5296256110720923,3.3136849006662668,0.04660162039760377,0.0022525644048764937,2.7767769901378303,1.8409527990165104,-0.3161292546876381,0.013126292942335915,0.5315608778024838
4.0851898193359375,6.823855832160429,0.17333496950913993,2.5294716161505586,3.348606993635702,0.07754613315491556,-0.0053618275356815195,2.644110690550444,1.7896970793976033,-0.2903553292749946,0.02119893537273576,0.4036321215199923
4.105159282684326,6.960603612148737,0.17865186776473008,2.528699721010465,3.4694550774720563,0.1684749181229699,-0.024871276956715888,2.4219877865166763,1.7945552351700127,-0.2621728496429027,0.04431445510450516,1.1557759865884698
4.125159978866577,7.030462785523256,0.18238046686379775,2.528151676643805,3.51575392295759,0.20439227520403586,-0.029843412844765087,2.209483388192402,1.7967415356211078,-0.2352483857252395,0.05042320690986113,0.3054375902677986
4.145147323608398,7.0661472151251346,0.18488759638057434,2.527634579008368,3.5478539446275943,0.2318735613052813,-0.03787447108562599,1.9738721672951889,1.6898893217446198,-0.2091422744701615,0.05609027363208341,0.283353336111114
4.165169954299927,7.137483914029826,0.18985609372540962,2.52683694030561,3.585067339077437,0.2646314238858843,-0.04180644986638543,1.7492864569259934,1.5864636604410165,-0.18425707448623468,0.06270477361061833,0.3307249989267458
4.185226917266846,7.174095670059461,0.1928941447073888,2.5261826026385354,3.620314637560895,0.288378099757116,-0.04993064668490222,1.568810607552786,1.4591923889611746,-0.15994944942249678,0.06679586713072494,0.20455467600533073
4.205168962478638,7.321437825382166,0.20629583773991622,2.523669629374117,3.712218273208366,0.3633784156398071,-0.06576801279442171,1.3267782766750191,1.3451742249524727,-0.13355482343220101,0.08146367003065835,0.7333901449966707
4.225103855133057,7.395932021366006,0.21382506953718736,2.522329248724203,3.7364351266373514,0.38917998870806153,-0.06818666148781566,1.0969146001605428,1.235740236202782,-0.1085371297273002,0.08408899865733321,0.13126643133374305
4.245137691497803,7.434011749669868,0.21824916032438188,2.5214078667747626,3.7644425673200685,0.4139204923995778,-0.07570733379450877,0.9017736929062669,1.1064533698582801,-0.08430246631068376,0.0883556035920483,0.21333024673575451
4.265557765960693,7.509468445382357,0.22674055224128606,2.5198784084964645,3.780609708429015,0.434808385977487,-0.07716214883900067,0.7165816626941274,0.9833572740597837,-0.061398431851612374,0.09153153637934519,0.15879663936484434
4.2851409912109375,7.586396428005452,0.23653473620843865,2.51798288519395,3.8218555636311193,0.4771205229729554,-0.0865429219899555,0.4649818603094167,0.9888089916734625,-0.038380869309901984,0.098611651522587,0.35400575716209026
4.305151462554932,7.701968818459639,0.2517877758403239,2.5151992113679116,3.8538236022867074,0.5203465130577166,-0.09224687137184368,0.21458497002317636,0.976767263830987,-0.015577318283116722,0.10493340273868546,0.31608756080492295
4.32511305809021,7.779072339624491,0.2623892098154286,2.513352609888614,3.8557487015040968,0.5397536244781491,-0.09234183889399718,-0.01936507116578286,0.9637896164063888,0.005854490511225299,0.10719424194150928,0.11304196014119139
4.3451972007751465,7.818246687872017,0.2681179911717145,2.512323283128022,3.8715359245367766,0.5574027350011398,-0.09502041502463077,-0.19321827807618733,1.0029563023352925,0.0256077616457137,0.10972381628807959,0.12647871732851534
4.365432262420654,7.895627783498299,0.27946903510855753,2.5104292501893783,3.8660347323251414,0.5778180512909195,-0.09432122637436763,-0.3548946426153928,1.03787574272945,0.04410397799453556,0.11310453561405831,0.16903596629893602
4.385214567184448,7.934977951329593,0.28539525522700515,2.509424778213125,3.8809119644702657,0.5907982655606974,-0.09541854213313646,-0.5200253042585281,1.0644739501951475,0.06082970232433865,0.11429498865330023,0.05952265196209616
4.405142784118652,8.090752703746501,0.3097388895207208,2.505644871774119,3.8813193544375815,0.6298406403744362,-0.09286996204260539,-0.6989371238681292,1.09961147624115,0.07618971663602227,0.12080666101415583,0.3255836180427796
4.425197601318359,8.168228058762947,0.32255773635111445,2.5038036801670964,3.8656651481744237,0.6521458347570344,-0.0912016075021571,-0.864242117537865,1.1301509738528748,0.09046748891939996,0.12365807964794984,0.1425709316897006
4.445122003555298,8.207167582147637,0.32897608659732336,2.502960286966497,3.864743128704837,0.659963511703638,-0.08827402221224774,-1.0103086942036161,1.272454990748524,0.10238214710347605,0.12438482662815575,0.03633734901029584
4.4655914306640625,8.284251234055947,0.342438709146367,2.501216031256406,3.843174306223896,0.6867315179548128,-0.08611489006300989,-1.1446399157251286,1.4022923084298997,0.11338013666037478,0.12965428623507735,0.26347298034608
4.485201597213745,8.322945826304819,0.3490740518963295,2.5004525946848255,3.839878962041585,0.6926119312997188,-0.08219350328829927,-1.2192635044728994,1.4945800837528813,0.12211630826742054,0.12934946784585488,-0.015240919461123603
4.505154371261597,8.475900405975924,0.37713334315403046,2.497455119626907,3.7971281031305137,0.7308029782664003,-0.07228304547267539,-1.3791285699883233,1.4440133526561,0.12827998335591898,0.1371053737892174,0.38779529716812533
4.525191068649292,8.551557151087255,0.39203483718310483,2.4960354949083596,3.768057812030934,0.7591780680949877,-0.06966092134317496,-1.5257124495565848,1.393506580222843,0.13383175727345778,0.14097801454463177,0.19363203777071902
4.545206546783447,8.589162911645825,0.3992245218581394,2.495506406041472,3.7512157372904293,0.7602423955553953,-0.06367943575854003,-1.6969301339514113,1.4302760566545876,0.13718236176930693,0.14063591539330478,-0.017104957566349555
4.56515097618103,8.663837180498225,0.4147175703351358,2.494260454336207,3.7156905686490256,0.7891646933913032,-0.060906082781240566,-1.8531098063975344,1.4609510437887783,0.1400781633424846,0.14704900969479873,0.32065471507469745
4.585167646408081,8.737927495310657,0.4303307526867237,2.493312857589242,3.682289399374799,0.8076418892658348,-0.05204162309970483,-1.8634583402296372,1.5296795104338552,0.1404796257786215,0.14944308366915493,0.11970369871781017
4.605109214782715,8.847568103246381,0.45496854213969135,2.4919758332143265,3.626095671551747,0.8460032179899204,-0.04323514603438879,-1.877979543749694,1.5927218175079307,0.13900412238551493,0.1574152346251365,0.39860754779907914
4.625173091888428,8.91971375280693,0.4722109226402783,2.4911388245749104,3.588440814116326,0.8784163394737368,-0.04047117864946326,-1.8865233335575906,1.6471777323687855,0.13736599652837683,0.16211741283671754,0.2351089105790516
4.645155429840088,8.955294869133832,0.4807679204539942,2.490895858605112,3.5633199544366576,0.8866298722529711,-0.034729325746099465,-1.8689180006400603,1.7262843703269997,0.13437725113721113,0.16324441293328684,0.05635000482846486
4.665207862854004,9.026188867352513,0.49885056222872076,2.490227945161533,3.526152430807112,0.9218656859358306,-0.03207218809377448,-1.8471510453412405,1.7957026630279915,0.1313264647004392,0.17059369080206688,0.36746389343900177
4.685232877731323,9.095693649348535,0.5170165625580236,2.489818091270252,3.4724669577197176,0.9423064033025926,-0.02444583821542794,-1.821213462126025,1.8531990711202393,0.12668023570791218,0.17392311621762158,0.16647127077773494
4.705117225646973,9.198463930600997,0.545691777005758,2.4892483539487,3.401454774023867,0.9858889383833557,-0.01769340822158001,-1.7650812418786432,1.8640640360023506,0.12097961962034336,0.18347960277653952,0.47782432794589713
4.725109100341797,9.26614383221698,0.565782855809551,2.4889183080530373,3.3667278141197157,1.0232394086241294,-0.015329758114834585,-1.7073543550314556,1.8702060722530944,0.11540657258462356,0.1882242524192579,0.2372324821359184
4.745109796524048,9.299089768433074,0.5757798536297605,2.4888518021503283,3.3320201461971597,1.0324196506551746,-0.011971406339596351,-1.635455036999193,1.8220957448879957,0.10952969438826454,0.19009636964917487,0.09360586149584904
4.765373945236206,9.365407905207743,0.5967894111958254,2.488633896055253,3.3000352799201482,1.0683726065735963,-0.009838267938670636,-1.5629311771453271,1.7730465713164913,0.10381023345153985,0.19709096057586972,0.34972954633474274
4.785252332687378,9.429988121461877,0.6182853795707862,2.4885346461675333,3.2418488090178395,1.0988297042489972,-0.006039408368533691,-1.449023878712669,1.7569474168838224,0.09771791249428607,0.20266991631319442,0.2789477868662349
4.805121183395386,9.525806002946547,0.6520567806254085,2.488405380684212,3.176730760559356,1.1517716820213475,-0.0029999339117427323,-1.3423073579758065,1.7148630656757367,0.09152203042641223,0.21295937785295616,0.5144730769880868
4.825112342834473,9.589079194129779,0.6754322609826706,2.4883632837455143,3.150938947097321,1.1856280918391968,-0.0012297215383190421,-1.2371305458700108,1.6703858558792024,0.08553350387518531,0.21573436593966955,0.13874940433566962
4.845211744308472,9.619735929324357,0.6874355861856053,2.488332676356552,3.1168950165935025,1.2037622004352384,-0.0011185636795258212,-1.1314890961767163,1.6161100706161624,0.08011897831337991,0.2200023565785738,0.2133995319452131
4.865173101425171,9.681854480640444,0.7118303557068921,2.4883259768173716,3.0953059945843022,1.2355286534965717,0.0004311539360612329,-1.0277250312965351,1.5602816487554128,0.0748821869420785,0.22446054746520927,0.222909544331773
4.885153532028198,9.71189275006625,0.7244022125737659,2.4882951076939697,3.061289692582644,1.254590986866453,-7.0377154917565494e-06,-0.9318837252557534,1.4941775543140923,0.07027565336208053,0.22789430189492288,0.17168772148568046
4.905157566070557,9.832276697600566,0.7761286947616565,2.488274683367143,2.9924717805613525,1.322544569995151,0.0008064017490847711,-0.8204536729017065,1.4267911421462123,0.06593756611339353,0.24073357173032406,0.641963491770059
4.925170421600342,9.89196935854527,0.8028604322371966,2.488303716443525,2.9771582460090342,1.3504032569556166,0.0020828936858464223,-0.7112738485834138,1.359015529665312,0.061733874711491644,0.2399397922672799,-0.03968897315220765
4.945147514343262,9.920997484998983,0.8166768410289593,2.4882646439606826,2.950650757134948,1.3708894378727068,0.0008529104439100739,-0.6388025935006116,1.3452872864914902,0.05824705408927504,0.24541819452723734,0.2739201129978719
4.965278625488281,9.979887589290557,0.8443626075270938,2.4882931238414097,2.938602435697478,1.3976305258436739,0.0019837688071032713,-0.5659743506530117,1.328282948031286,0.054854390723568444,0.24729285803432433,0.09373317535434911
4.9852423667907715,10.037507479239212,0.8730115054756494,2.4882502302377056,2.902413804183674,1.4345394243140772,0.0007545734674153193,-0.4875977237100532,1.3057000779091235,0.05208824455293198,0.25370555662745353,0.32063492965646034
5.005080938339233,10.123808159340216,0.9168468556874855,2.488250767694292,2.873107397465245,1.4795416446046015,0.0010284141632317496,-0.38244964381149527,1.294947140685541,0.049533009470313034,0.258358047081805,0.23262452271757272
5.025221109390259,10.181200719874287,0.9466957508394621,2.4882810747628494,2.866491995850263,1.5052980623291945,0.0019939440054881265,-0.2794475438934655,1.2800066503409575,0.04702840103459165,0.2589070166652254,0.027448479171021667
5.045073509216309,10.20940726086516,0.9619535613486013,2.48827342824915,2.852150229749574,1.521738510267962,0.0016196264871226752,-0.16358583615633507,1.2492551602827664,0.044831266206687946,0.2620448112001057,0.1568897267440139
5.0653204917907715,10.266425086329459,0.9926360002134333,2.4883146423690143,2.850006141401818,1.5463940908541263,0.0024945826101896874,-0.051437549127872115,1.2158709135446442,0.042670401558805165,0.26308968096342156,0.05224348816579294
5.085235834121704,10.322688284121345,1.0239926778224704,2.488352174775574,2.8319146793511925,1.575887061795078,0.0028502675861755426,0.07143009315805743,1.2776562395360775,0.04058895828630183,0.26645307605072777,0.16816975436531045
5.105090379714966,10.407230474278022,1.0719213810391806,2.4884526745918434,2.8223941730789304,1.6174534523096422,0.003976723692917746,0.1925171417201219,1.430334815623499,0.03841418057504614,0.2691839211140197,0.13654225316459545
5.125123023986816,10.463724667579596,1.1045656782646092,2.4885397492304033,2.827411089561709,1.6474176258937412,0.004723645065476998,0.3082985501082486,1.5627505419353513,0.036285648086133555,0.26946119635838706,0.013863762218369047
5.145128011703491,10.491650717866642,1.1210269464357927,2.488602068423281,2.821352239534016,1.6608898097069928,0.005501390792739326,0.43426127536595527,1.6624443926225192,0.034130849349505096,0.27132326446726474,0.09310340544388396
5.1653382778167725,10.548172690947354,1.154583017096334,2.488718781391328,2.8312435735729284,1.6949924100602733,0.00616289886836593,0.5538149926606514,1.7449983833501934,0.032028699591431745,0.2727221989584163,0.06994672455757911
5.185208320617676,10.604311028730944,1.18822605519479,2.488919826154973,2.828860757962615,1.7141400179162976,0.008674944150197747,0.7111291191737962,1.728318971006754,0.029440431008949473,0.27227878461331434,-0.022170717255098893
5.205154180526733,10.68913675689741,1.2400159829437842,2.4892639290136733,2.841173685749619,1.7542498131119515,0.011566038075429264,0.8557757817320205,1.695277203900557,0.02631369360267119,0.27356510552841007,0.06431604575478644
5.225197076797485,10.746140591702598,1.2754374732928813,2.489500310502914,2.8596628969868805,1.7877652823150036,0.012062116559678262,0.9917097520760485,1.6550991164335873,0.023315369392893772,0.273039265703519,-0.026291991244553614
5.245120286941528,10.774488663442792,1.2931415179741719,2.4896920632151516,2.8622666707309983,1.796028198118966,0.014247245749110755,1.1183331827605756,1.4936438280834825,0.020037043220440046,0.2735195697185735,0.024015200752725008
5.265594005584717,10.831965716679802,1.3293501172693072,2.489980804484897,2.8858349182063265,1.824298245931076,0.01461645224073302,1.2372155934184499,1.3335987396798576,0.016908300646468397,0.272858365114768,-0.03306023019027382
5.285171747207642,10.889382952285578,1.3662134948221696,2.490366760057045,2.8979505251860442,1.853887641480754,0.017109612752788262,1.3415118634491603,1.1913512778889814,0.013400332890774282,0.27288947391265683,0.0015554398944406245
5.30508279800415,10.976638235010181,1.4227318870148353,2.490921707445856,2.930895492363017,1.8988947690605371,0.01846158246881175,1.4223263203428167,1.0210204373592082,0.009773211912531141,0.2719368667651283,-0.04763035737642696
5.3250792026519775,11.035545725740397,1.4609027830066237,2.491292661542786,2.96010488449432,1.917637181340508,0.01862237586860284,1.497719502114349,0.853725558944207,0.006337739175053257,0.2687543601378577,-0.1591253313635299
5.345176935195923,11.065071457506923,1.4805469937073656,2.4914997812323314,2.9718254195683613,1.936956833808958,0.019222736240489403,1.5877748238857314,0.6861385902347554,0.003089334004355803,0.27097724878466023,0.11114443234012672
5.365154027938843,11.124831175986678,1.5194123853778387,2.491884646321619,3.0044234537486294,1.9490370078919768,0.019253546771540217,1.670885254849972,0.5225403320922917,2.1495372114417953e-05,0.26614169964057455,-0.24177745720428412
5.3852174282073975,11.154848176525155,1.5395229253338465,2.492091120528203,3.0186398598095487,1.9700431484852128,0.019611657105769564,1.726322246043046,0.389079585446425,-0.002834893324420987,0.26800140733096534,0.09298538451953942
5.4051032066345215,11.276870152808181,1.6196829295068407,2.4928903353429877,3.087275798627699,2.010921570597824,0.01988526051877963,1.9289512407725122,0.3477259814265648,-0.005671350209581203,0.2601316965988416,-0.39348553660618624
5.425175666809082,11.339014089541012,1.6599677437681075,2.493286725849333,3.1277349710936453,2.0173951049291143,0.01974491104406104,2.114087574693777,0.29830526848406747,-0.008335135007022211,0.2572480036757412,-0.14418464615502113
5.445126533508301,11.370362744175933,1.6806348484504685,2.4934964947094094,3.1490416193750876,2.0332168141193376,0.02003791044365784,2.2671997424018575,0.24516421527007795,-0.010807205114433175,0.2580167587272624,0.0384377525760593
5.4653356075286865,11.433806482111942,1.721344324232932,2.493894934695277,3.1957932665794853,2.0375303655569006,0.01979838109202978,2.4055338198615854,0.18504867671525888,-0.013119380331043125,0.25166089235046707,-0.31779331883976525
5.485264301300049,11.46562251977711,1.7420812272144386,2.494142903305176,3.213101758514898,2.048351951809014,0.022464325885081862,2.490680917519732,0.09106405349093093,0.14443219460871867,0.2525061921574907,0.04226499035118181
5.505100250244141,11.59566294035381,1.8245280948344915,2.4951033496682022,3.3020657365587756,2.0617784952702403,0.027663554228985105,2.5547395625402802,-0.00890536057388011,0.2812510595534221,0.23998085243014478,-0.6262669863672965
5.525161266326904,11.662218995872015,1.8657550744030926,2.495721420903788,3.3537216187130907,2.0605766542473893,0.034561665102351154,2.6092849691198845,-0.11174516895273043,0.406684139966839,0.23741933475014987,-0.12807588399974534
5.545166730880737,11.69579973296039,1.886562186583545,2.4959879696702174,3.3770334163085374,2.0650433808424293,0.03536596468665784,2.5210756398205576,-0.1427443391451509,0.35801262046200033,0.23662732659674734,-0.03960040767012618
5.565208673477173,11.763838749675804,1.9278320671315365,2.4967637686639645,3.4265751646379745,2.0618166876104427,0.04205980253400711,2.4331489996739832,-0.18113603584154267,0.31177213370407286,0.23012956105593352,-0.32488827704069134
5.5851709842681885,11.833128673028314,1.9693774279722787,2.497508902883004,3.482619055098412,2.066179598042871,0.044636420249101104,2.344062853836653,-0.2084472020673024,0.26999187644558803,0.22533661958219842,-0.23964707368675509
5.60517692565918,11.939133892033414,2.0313576832564872,2.4989768962418775,3.5661518835568726,2.0619933189484647,0.052655882262222085,2.2805473638713774,-0.2323891124189473,0.23007386961019646,0.2161948486027443,-0.4570885489727061
5.625158071517944,12.010908740521876,2.0725490855693125,2.5000734731859566,3.611116996310779,2.0570412164215415,0.056875779706136526,2.215757940545569,-0.26409363064667946,0.19226338986738756,0.21235851241733616,-0.19181680927040645
5.6451427936553955,12.04765330868805,2.0930628022145283,2.5006617408037037,3.647680251849509,2.0529267379181113,0.05878260120990628,2.1552291339464347,-0.26303386238919546,0.15824027008622643,0.21044629825646854,-0.09561070804338101
5.665146350860596,12.121033841330302,2.134068311037615,2.5018668662089483,3.6901657603966096,2.0475951633998526,0.06162274590121941,2.0930550483223866,-0.271723093837021,0.12608157356524935,0.20507952780793826,-0.26833852242651446
5.685326814651489,12.196110541820321,2.1747636050543964,2.5031845666348103,3.75294249151455,2.0366956667802496,0.06539221888964641,2.0476178912404657,-0.2806966530611445,0.09646145639479003,0.1978390577878555,-0.3620235010041384
5.705169677734375,12.310144747757878,2.2355347381718724,2.5052196785832925,3.8287772816329864,2.02245279276402,0.06886644296936996,1.9900078455255754,-0.2743222598158831,0.06845766407700078,0.1897089698008747,-0.40650439934903915
5.7251622676849365,12.387114347554233,2.275928839593047,2.506608914859095,3.8679835985527276,2.0169444139861974,0.06996934179655291,1.9302798014757976,-0.2781976103127583,0.04210420613750392,0.1859238725992114,-0.1892548600831656
5.7451701164245605,12.42636316135932,2.295839087961704,2.507315946824133,3.900059267406595,2.0069520538801946,0.07029142981166565,1.853617364899402,-0.2937936853847466,0.01869793813645341,0.18392623824034926,-0.09988171794310663
5.76547908782959,12.504729926268814,2.3359178964420417,2.5087240274291576,3.9363595088654875,2.000847994957069,0.07044345044355979,1.776304123819014,-0.31802879395119876,-0.003256686459617708,0.17923052947244233,-0.23478543839534627
5.7852702140808105,12.584583474595116,2.37547715749666,2.5101394419604355,3.9906752060513995,1.9845264111713,0.0703269825050304,1.7153681928466344,-0.3377237019315335,-0.022811036089962176,0.17190588544164154,-0.3662322015400399
5.805141925811768,12.705559413770496,2.4346199904058214,2.512224432447881,4.055268339242515,1.9673286013488949,0.06904492508659402,1.6474626630581488,-0.3641335387036148,-0.04060242173268594,0.16460634403417362,-0.36497707037339566
5.825119256973267,12.786989691718254,2.4738915868566957,2.513596085165186,4.0875295181467255,1.9597172478457638,0.06806508165193001,1.5784827672634394,-0.39826806807098075,-0.057182394301545626,0.16073732007995467,-0.19345119771094765
5.845158100128174,12.82834671328986,2.493241550398528,2.51424517112542,4.113779529992841,1.9490586872266784,0.06653495979867656,1.4733047581682512,-0.424388598494137,-0.07139975022070354,0.1593095869135155,-0.07138665832195912
5.86519718170166,12.910910027578991,2.5321357228436505,2.5155606949564757,4.142206287442618,1.9402461251748067,0.06497351439391257,1.3696216110418957,-0.4581140176206261,-0.08457284351280568,0.15475362880473842,-0.22779790543885348
5.885171890258789,12.994667490858465,2.5705905211733353,2.5168124880545157,4.184768845264141,1.9245827523787624,0.062405584765494536,1.2693474560127112,-0.48017896067592236,-0.0956568310315036,0.14828443498099775,-0.32345969118703355
5.905120372772217,13.12119411454027,2.627971010438128,2.518613850410806,4.233511028482013,1.9057625979338761,0.05864244394264195,1.1428371028575985,-0.5303844162466713,-0.1051480116772439,0.1415954526993186,-0.3344491140839567
5.925195217132568,13.206084643771401,2.665976558680297,2.5197650778437506,4.255131861577638,1.8946063154276391,0.05645137936854404,1.0198266044690776,-0.5861542820236485,-0.11382434872734871,0.13766184964927364,-0.1966801525022488
5.9451587200164795,13.24905530084363,2.6847680040437054,2.5202858815248135,4.274567578139298,1.8844322781979281,0.05415032890528674,0.8755582641517263,-0.6819043456648567,-0.12079719758213776,0.13688598676776476,-0.0387931440754441
5.965260982513428,13.334712404533398,2.7223138196039973,2.5213442983066705,4.290679082493382,1.8698257672307221,0.051670398165367566,0.7364443889318805,-0.7789559871169598,-0.1270828300693947,0.1322036203767234,-0.23411831955206797
5.98523211479187,13.421391453364958,2.759574150774024,2.5222979650398853,4.322502578441417,1.8548197909407071,0.047734140683130796,0.6217912042600582,-0.8308822875393039,-0.13164248043935078,0.12648173576324506,-0.2860942306739167
6.005141496658325,13.551802452382985,2.8149579748867595,2.5236377300909747,4.352795216601464,1.8327122178905277,0.04282366699155754,0.47359064528324507,-0.8832982851114632,-0.13486779263130869,0.120209521000461,-0.3136107381392028
6.025179147720337,13.638943521854896,2.8514318524865043,2.524467039122364,4.360839474629936,1.814486717875772,0.0400980969064424,0.33191179444600694,-0.9399428164502773,-0.13760979028022247,0.11594647685055559,-0.21315220749527075
6.045176267623901,13.68294247259993,2.8696270868671054,2.524833742118606,4.373935387743732,1.8074175617592574,0.037936670130927046,0.24405031829470133,-0.9860353190033282,-0.1393287713509854,0.11614234373593924,0.009793344269182214
6.065412282943726,13.77046427999386,2.9055749296406628,2.5255645152086457,4.37796226010908,1.787197915535819,0.035136239549413584,0.1591221208959058,-1.0366724846784228,-0.14064876337894497,0.11111793881514398,-0.2512202460397628
6.085240840911865,13.85865998817678,2.9412845546749926,2.526213726011177,4.3953464222199035,1.7701468018294155,0.031731844427924205,0.10096745636260131,-1.1035187592782385,-0.14087745788659847,0.10601301663634377,-0.25524610894001043
6.105161666870117,13.99082016542864,2.9939948548488022,2.5271006642700224,4.404815352958281,1.7394145798124563,0.027493403449791592,0.03856264228195467,-1.1713303655167249,-0.14026022155142573,0.09961469033082437,-0.31991631527596986
6.125158786773682,14.078920118718775,3.028544228246373,2.527622534451118,4.404978215779641,1.715288023546751,0.02469653529466074,-0.021965888900427284,-1.2417491580624889,-0.13938417417479296,0.09506372063664914,-0.22754848470876166
6.145093679428101,14.123076709496972,3.045732779687151,2.5278758221423883,4.40723045630831,1.705188628781582,0.023722075680976697,-0.0631629397951426,-1.2982894796346713,-0.13818159746309175,0.0956987276010679,0.03175034822093803
6.165231466293335,14.211205989872854,3.0795729640409113,2.528322718576323,4.40556360614643,1.6786306732394147,0.020972310605369294,-0.10335567707793888,-1.3580271175198593,-0.13675885792799744,0.09014624990725961,-0.27762388469041444
6.185189962387085,14.299352993986044,3.1131284195838034,2.528756421681376,4.404244190096528,1.6575417425666037,0.019336040727525487,-0.13825157862441345,-1.3981498966213863,-0.13495978713720508,0.0856531367259814,-0.22465565906391038
6.205152988433838,14.431356851021222,3.16237974948528,2.529313165373552,4.3975847178192025,1.6195041874710645,0.01638532951541628,-0.2122806014564278,-1.447216472788317,-0.1327537953110233,0.0789990710686439,-0.3327032828668752
6.225111246109009,14.5192613135445,3.1944769635080768,2.5296144758654613,4.392625380341108,1.590043366622243,0.013753576463567835,-0.2831278520945672,-1.4993686895030922,-0.13039686045666787,0.07413566487253087,-0.24317030980565146
6.245145559310913,14.563066019029488,3.2104029503423037,2.5297866015124653,4.386218733998558,1.5773281165167663,0.01364611657032042,-0.3380345400144643,-1.5582395219083776,-0.12809356610408212,0.07512141328128186,0.0492874204375493
6.2653257846832275,14.650719287792208,3.241633966564208,2.530034065620726,4.3789358543265156,1.5455790443748971,0.01110843171781368,-0.38972193547861045,-1.6165776618566066,-0.1256524232554909,0.06918165842950019,-0.2969877425890832
6.285248041152954,14.738127814340379,3.272406031776869,2.530292328072673,4.368431653073254,1.517407815548454,0.010150023955747435,-0.43269516968659905,-1.6705985682853959,-0.12309156076905424,0.06441022074827085,-0.238571884061467
6.305090665817261,14.868899338372675,3.3172992914831334,2.530583343537187,4.352442064886722,1.4703105197247854,0.00768362268914464,-0.48562852161077946,-1.7261510394332706,-0.12025333544460301,0.05732161696648852,-0.3544301890891166
6.325129508972168,14.955847743217722,3.346356741619018,2.53071315920152,4.3422364727811225,1.4352608440477448,0.005307713191662176,-0.5342141968605775,-1.7782473546471274,-0.11732257840251133,0.05216479337490565,-0.25784117957914354
6.345097541809082,14.999113505287504,3.3607219899790444,2.5308044484643513,4.332708757453605,1.4198920965936752,0.00541849239768704,-0.5820521779101715,-1.8306677535886025,-0.11456218437712848,0.05319754620571926,0.05163764154068051
6.365164756774902,15.085648292348289,3.3887503750614703,2.5308900943426313,4.3206245471224065,1.382783065262427,0.0031555907400221375,-0.6256742354288503,-1.8796730384422256,-0.11171366583212373,0.046902424157344136,-0.3147561024187562
6.385191440582275,15.128710964311086,3.4026147838134193,2.530957618633884,4.310696487611237,1.3676167236287662,0.0032482359456403815,-0.6747622866947643,-1.8830509519800993,-0.10902135497035077,0.0459778601246108,-0.04622820163666663
6.405179977416992,15.300461781371528,3.4559715012738126,2.5310571930537464,4.279820905631887,1.2959233158101355,0.00032797118725263444,-0.7167359326005945,-1.8795048637330638,-0.10590503290389879,0.03280706071343387,-0.6585399705588468
6.425156354904175,15.385912161012348,3.4815140183812514,2.531042781827589,4.265084256639934,1.2583213291027076,-0.0017585342337719414,-0.7565772018777545,-1.8816213729883369,-0.10273722079537978,0.030005831662581528,-0.14006145254261693
6.445096731185913,15.428405802112254,3.494001949736783,2.5310503901204284,4.25364398538621,1.2393328664363141,-0.0019183183729989282,-0.8095485619299336,-1.8788450137552504,-0.09969814820049186,0.029739625439117567,-0.01331031117319803
6.465184688568115,15.513313370131225,3.518412749259847,2.530992289037965,4.23694485197907,1.2017381668414187,-0.0038815071742735723,-0.8599387557007828,-1.8815176260266133,-0.0966133935281732,0.02419269571396354,-0.2773464862577013
6.485227108001709,15.555558391604912,3.5302690258684444,2.530966525621957,4.225639501204743,1.1809101123957593,-0.004324472621338101,-0.9053288326782216,-1.8810292433345734,-0.09357669645863213,0.022242374368873552,-0.09751606725449946
6.505134105682373,15.723806748924718,3.575851778266251,2.530732392101617,4.187796769262098,1.1026349885944566,-0.00770206977266558,-0.9317384075773631,-1.7928011098801915,-0.0899542807835626,0.008954251837200111,-0.664406126583672
6.525157928466797,15.807374692332713,3.597551379292239,2.5305606009452486,4.168917275109451,1.0675912825592782,-0.009464998649802794,-0.9558280806089529,-1.7129468926768339,-0.08634014869453076,0.006573380204806245,-0.1190435816196933
6.545126914978027,15.848946820703086,3.607973628352046,2.530465594349883,4.157118098780243,1.04511992659135,-0.010213378337877964,-0.9803967852515273,-1.7593572594031601,-0.08276040013286286,0.005713809396223013,-0.042978540429161605
6.565297842025757,15.931891610525346,3.628521101916563,2.5302450124403912,4.137288631619655,1.0094754311264889,-0.011832941695973237,-1.0020734359082681,-1.8049568116356531,-0.07919915216984835,0.0008211923028640378,-0.24463085466794876
6.585210561752319,15.973143509449423,3.6382815725120254,2.53010927306922,4.124970269969605,0.9843280059013446,-0.01299721427029982,-1.0287329674231895,-1.8381905840858817,-0.07556281446413805,-0.0020356556693936767,-0.14284239861288572
6.605165243148804,16.137213041971595,3.6760174158072845,2.529504924068616,4.080751337432252,0.9067034238937474,-0.016534683885835372,-1.0692474166118984,-1.866675410756842,-0.07126895850499164,-0.014718441341369015,-0.6341392835987669
6.62519383430481,16.218611717977033,3.693776273744898,2.5291602586045303,4.0589944870247825,0.8690889912852535,-0.017917833071461053,-1.1057817362171456,-1.894688908035689,-0.06706012144924316,-0.01776512649864115,-0.15233425786360666
6.645129680633545,16.259073165361475,3.702336851331288,2.5289753515956472,4.0456035304409115,0.8486524329423044,-0.018608662655963504,-1.1388009615760681,-1.9647808814157943,-0.06297843829085621,-0.01806216357560686,-0.014851853848285579
6.665410280227661,16.339755467279996,3.71891244632608,2.5285908504131336,4.022529407939894,0.8086850822146301,-0.019828140121126443,-1.167978501863869,-2.031377321993873,-0.05898379142360373,-0.023714874224168625,-0.28263553242808825
6.685240030288696,16.419947947695878,3.7348044256000206,2.5281844890636447,3.998566174274963,0.7732739582046827,-0.02089969119876903,-1.1774029901444623,-1.8245284877962968,-0.054952349846967896,-0.02925551999256104,-0.2770322884196208
6.705148696899414,16.53936331548117,3.757178899599548,2.527539527703574,3.9627713308468553,0.7194419420638847,-0.02233372221344438,-1.1873978909560068,-1.6330888796678003,-0.05081168254980189,-0.03617306719151214,-0.3458773599475551
6.725142478942871,16.61838070461425,3.7712531240956717,2.5270829612277903,3.9389414717638487,0.688568197549606,-0.023309505260188778,-1.1952319075778715,-1.4567756888426935,-0.04678563264824019,-0.0406213413936376,-0.22241371010627287
6.74518084526062,16.657666918818308,3.7778014893857743,2.5268308270982875,3.9248634688177457,0.6662238294030183,-0.02429902356528392,-1.297261189230337,-1.4340140340281315,-0.04280521686658365,-0.04069695035692922,-0.0037804481645808963
6.765259504318237,16.735898396063728,3.7908404716154975,2.5263365449450057,3.8979748549413085,0.6377363912884734,-0.025116323060004487,-1.3900852800813255,-1.4154126105411473,-0.038944583430072816,-0.04468152847057594,-0.19922890568233598
6.785201549530029,16.774820664562373,3.7966408047033147,2.526028253737349,3.88457444317201,0.6104255119719428,-0.027086663531878045,-1.3897879336470287,-1.2735988784727508,-0.03486532279613311,-0.04849694763321244,-0.1907709581318251
6.805109262466431,16.929281039760905,3.819307362762583,2.524835169473874,3.833210267249288,0.54137420601482,-0.03037813306403205,-1.435037826832494,-1.295527012797545,-0.030086289372526658,-0.05973242352362185,-0.5617737945204704
6.825167894363403,17.00565552423398,3.8298742206679393,2.5242218983367937,3.8041074936838872,0.5152345894253854,-0.030933703673321163,-1.4742465086581327,-1.3186245405535222,-0.025503142857471482,-0.06180320066466072,-0.10353885705194354
6.845082521438599,17.043730505209293,3.834683355581393,2.5238818681243056,3.7924750864456924,0.4943173428199656,-0.03195973690050068,-1.4660108065196902,-1.3463523625920637,-0.021038077293055193,-0.06278064844258768,-0.04887238889634826
6.865230560302734,17.1192874655064,3.8442985559382303,2.5232387537297702,3.7632558125957716,0.4671084455640521,-0.03233746489212696,-1.45555103412492,-1.3746261032854847,-0.01676672204052202,-0.0662465228517295,-0.17329372045709057
6.885141611099243,17.194385039761947,3.853283923077402,2.5225664657892604,3.736502130906779,0.43765226280338076,-0.03313538262173749,-1.497910437428242,-1.4367545711534813,-0.012561977281215846,-0.07192397406176765,-0.2838725605019077
6.905123710632324,17.305823481237784,3.86586448917142,2.5215629468978036,3.692054750430245,0.3973530322641915,-0.03357463142061881,-1.4981398671309214,-1.4574017141216624,-0.00842091495609179,-0.07687321395622115,-0.24746199472267527
6.925135850906372,17.37936506358864,3.873518663625871,2.520890036132711,3.662111397283932,0.3679936442702676,-0.033703308089839026,-1.4957671587250982,-1.478631918595685,-0.004479752030769119,-0.08202385064856177,-0.2575318346170308
6.945075511932373,17.415912037736152,3.8772659765545914,2.520556609806677,3.64732835753669,0.35748400759796517,-0.033595342579412144,-1.4716240901952844,-1.4503324226987424,-0.0008953621773591784,-0.08017112127910098,0.09263646847303963
6.965608358383179,17.4885659444522,3.88412728325822,2.5198847538149627,3.6181464323069683,0.3287281359129228,-0.03357890881764231,-1.446389159078368,-1.4258887520113506,0.0025090280789904973,-0.0851031770184063,-0.2466027869652665
6.985179901123047,17.560597974723834,3.8906070954787406,2.5192396920557956,3.5899655605274154,0.3048457205797806,-0.030489252412671735,-1.2123599057136598,-1.411292725120815,0.28652785399343417,-0.08942298547423722,-0.21599042279154546
7.005143404006958,17.667548373652778,3.8991899660136946,2.518303702503166,3.54878228558232,0.2646748555875126,-0.024948856043877497,-1.022498752097639,-1.3950110106109712,0.5034849223529043,-0.09516724489056694,-0.2872129708164861
7.025127172470093,17.73833163291372,3.9042054053348556,2.5179189739405334,3.5301403490708805,0.2369139855290266,-0.012861427196490824,-0.8434821494225231,-1.3815369055604056,0.7022639637050624,-0.10010418429923451,-0.24684697043337867
7.045090913772583,17.7731711291474,3.906561102657229,2.5175681776027576,3.5115230593544218,0.22517462837463234,-0.010845265894331083,-0.5823576293850237,-1.3187685728242238,0.9846251301884998,-0.09862752101619066,0.07383316415219277
7.065333366394043,17.843301640516298,3.9108046881971816,2.5175657626309045,3.5023395776751083,0.19937071417481153,0.011461338934940694,-0.33890070022905633,-1.262728934188969,1.2419064047667452,-0.1032872904505675,-0.2329884717188424
7.085171699523926,17.9120117332667,3.914523142329925,2.517258782960091,3.46484665754963,0.17390523057583276,0.017995445415625155,-0.09678920836631093,-1.2001267458788851,1.4544737067417026,-0.10804795708558323,-0.23803333175078656
7.105164051055908,18.014875053484996,3.9190992511898055,2.5178811387777773,3.4325738456467247,0.1349193649391449,0.04423539159915803,-0.06409932868384095,-1.2009533788837683,1.2926092469975436,-0.11381327562399068,-0.28826592692037245
7.125154733657837,18.08351577877632,3.9215572923580804,2.5190139775639566,3.4316002744073817,0.11087533212727897,0.06853553377746709,-0.033620969740183734,-1.2037783925497973,1.138720528008251,-0.11835021380613853,-0.22684690910739214
7.1451005935668945,18.11700150724173,3.9225148088673696,2.5195199914426984,3.408092640755112,0.09553431524157745,0.07270685521645487,-0.059902268587041355,-1.3082891933454217,1.0012233966189221,-0.11788383863490681,0.023318758561585717
7.165282249450684,18.18514974368573,3.9241571180788557,2.5211655553870993,3.4066511214298063,0.06836473137318433,0.09141439054784739,-0.08386774310412698,-1.407853257537783,0.8706763705086119,-0.1225893364718118,-0.23527489184524963
7.185176134109497,18.2187208289989,3.9248278471958233,2.5222688603084022,3.3911122207103346,0.054549636819556296,0.10350354695452395,-0.257593876404389,-1.624787009418597,0.7518904131227347,-0.12452598700303907,-0.09683252656136343
7.205095529556274,18.354131312108418,3.926383428741197,2.5275199056136604,3.379429850518971,0.005605863102734222,0.1451842991438386,-0.5013528123198598,-1.8184363741784717,0.6334734060431494,-0.1344803743589842,-0.4977193677972558
7.2250895500183105,18.421604262756606,3.92611958091902,2.5305427129064246,3.367110818535795,-0.03259412710050368,0.15672304924459826,-0.7276782270329716,-1.999485484332826,0.5214568385757924,-0.14045197298594836,-0.2985799313482085
7.245139122009277,18.455581929126534,3.9263128169312593,2.5324189102573476,3.3682505742598443,-0.035871888937243426,0.16909726821902565,-0.9632306227079402,-2.141824963955763,0.4191220135932483,-0.13746722928150623,0.14923718522210638
7.265162229537964,18.522739489919886,3.925158032419936,2.5358781471560685,3.3467800639655154,-0.08004729413423582,0.17650454378948333,-1.180869970086142,-2.2740482992269655,0.3225565425266187,-0.14652891822859226,-0.45308444735430164
7.285159111022949,18.590743660362495,3.9243949002225924,2.5400148925728097,3.355204128116832,-0.09409191273925707,0.19569865253905294,-1.3724383125816844,-2.3784554372207136,0.23178955619082264,-0.14805059494255302,-0.07608383569803756
7.305099010467529,18.691831739902895,3.921284801478288,2.5463183259509585,3.3425448365248758,-0.1441493536343696,0.2112019617121379,-1.5506116140300117,-2.4728579006419698,0.14476110372945,-0.1576821908017636,-0.4815797929605292
7.325162649154663,18.75836143390347,3.9179013104300626,2.5505657818832526,3.3098836594117027,-0.1944904271280538,0.21327123924317665,-1.7128893538201917,-2.560063365984866,0.06304141599775971,-0.1667870050953857,-0.4552407146811044
7.3451056480407715,18.79236981952092,3.916456824423196,2.5529677937702315,3.3199642661192477,-0.20280974291841236,0.22076255138212547,-1.8347838180463556,-2.6032899371195968,-0.011016544971395328,-0.16393884614245735,0.14240794764641684
7.365508317947388,18.858394647032185,3.9118771529912757,2.5573761439588822,3.2821536994727247,-0.25529727093261806,0.21984153428615508,-1.9442250220029091,-2.645250934700816,-0.08029834555210061,-0.17534353010118808,-0.5702341979365366
7.385192155838013,18.925202241672093,3.9070656511029624,2.5622002135997435,3.2806903429209666,-0.28843069486760864,0.2286880962332105,-2.0547597528021253,-2.6735284912359694,-0.1441886590604306,-0.18031771549494557,-0.24870926968787455
7.405155897140503,19.023579958081676,3.8976015165546523,2.5692529768564922,3.2437591466088866,-0.3566521194892939,0.23111346255509752,-2.075747980786293,-2.543259968856903,-0.2040100359389122,-0.19380464953465104,-0.6743467019852734
7.4250946044921875,19.088038871836424,3.8899680108377694,2.5738306692099586,3.20208083604367,-0.40629716604836136,0.22647053461239777,-2.091168503201537,-2.422869881371185,-0.2595831821232376,-0.20306712543365446,-0.463123794950171
7.445108413696289,19.120630863210618,3.885938204718672,2.576277596540402,3.1995576024845547,-0.42661880195518737,0.22887132194210374,-2.146048264720976,-2.4176285226077208,-0.3089907777227297,-0.20357021740894066,-0.02515459876430981
7.465527534484863,19.18418968037531,3.8769228120502666,2.5807901211915056,3.156176605005955,-0.474892392593941,0.22222908875570394,-2.190305915156529,-2.4092083588578213,-0.35460864692202654,-0.21459490115695612,-0.5512341874007731
7.485190391540527,19.24762473554667,3.866707054445337,2.585401854166097,3.130514280545349,-0.529756573721012,0.22049121226696847,-2.1960041190054116,-2.463629747951892,-0.3946663450451964,-0.22617038739999673,-0.5787743121520306
7.505166053771973,19.340880003541226,3.8495314006176575,2.591936035231691,3.0737792378082864,-0.6097957562679842,0.21105053215297317,-2.1834829202032258,-2.6226290023936807,-0.4299992791905461,-0.24384464906708248,-0.8837130833542872
7.525124788284302,19.401920086338226,3.836801159716786,2.596068848475671,3.030294665336005,-0.6637051804171772,0.2021235110552351,-2.163799694643713,-2.7656894893862662,-0.46218497254015256,-0.2558006691190329,-0.59780100259752
7.545128107070923,19.432284866444466,3.8300009774747164,2.59813072279604,3.013122935261802,-0.6926317029681384,0.19905539036944628,-2.1742984379486194,-2.8765627384128534,-0.4893126642319603,-0.2601132765303342,-0.2156303705650675
7.565209150314331,19.492112218649414,3.815566300628076,2.602012297480711,2.9696073679995214,-0.7511616247258298,0.18902081395936515,-2.175778227718797,-2.9742611513968047,-0.5136931066675465,-0.27562642487028244,-0.7756574169974106
7.5851521492004395,19.551094347195516,3.8003566123081223,2.605815911616866,2.92638771930334,-0.8008745558141711,0.18171815517258394,-2.1686466270681373,-3.069468220725578,-0.5332841200368994,-0.289086388009971,-0.6729981569844279
7.6051185131073,19.637828598226655,3.775253201341666,2.6110930896974427,2.8589788343442026,-0.8850995612306356,0.16739715927568985,-2.1530139639028016,-3.152861028477134,-0.5486931260042928,-0.3138957190833924,-1.2404665536710713
7.625149726867676,19.69457901028802,3.756915685645439,2.614330374514703,2.816140762219748,-0.9488896436364943,0.15628709984616557,-2.1295010750576266,-3.2241567446815855,-0.5619608979085283,-0.33269259105836824,-0.9398435987487908
7.645159482955933,19.7225041755812,3.747477407019003,2.6158900019423252,2.7926033781978084,-0.9754828186561764,0.15120365378672077,-1.9379179239799715,-3.2441592564632757,-0.5716908176270337,-0.3403165960473524,-0.3812002494492095
7.665292263031006,19.77798118231668,3.727318031373736,2.6187991803303667,2.755719299876827,-1.0404917957687403,0.13968786993448223,-1.7513156922592112,-3.255278312701834,-0.5795862242759771,-0.36240002560428763,-1.1041714778467604
7.685264825820923,19.83219580979961,3.706064910191937,2.6214633392011746,2.7071097034522067,-1.1009257272069537,0.12753315803343002,-1.5788797163669666,-3.254395708701787,-0.5831008467784213,-0.3860570921260922,-1.1828533260902274
7.705166578292847,19.91203576777369,3.6715957752765696,2.6249524930337205,2.6428232532955116,-1.196602066045099,0.10780196629819516,-1.297678730556837,-3.075345525847158,-0.5822703638484196,-0.41747301866198994,-1.5707963267948966
7.725142478942871,19.964650776911835,3.6470603175476883,2.6269921944207875,2.6195706610173466,-1.2563657593428925,0.09617497381551304,-1.0297740876236043,-2.901959631726642,-0.5802305930705819,-0.4420054479518596,-1.2266214644934825
7.7450995445251465,19.989991513555083,3.6342060179736384,2.627789191964045,2.5886158045027052,-1.2882760604785968,0.08636693296764124,-0.7254092354886064,-2.6983173595151686,-0.5751143777856419,-0.4512583805013137,-0.462646627472707
7.7654969692230225,20.04163820703117,3.6079139709110923,2.6294018957916863,2.5770128060057567,-1.3402789904033743,0.07492361951647625,-0.43762446663119786,-2.5034177488344267,-0.5690640084962509,-0.4643129038546845,-0.6527261676685381
7.785322904586792,20.066210545890183,3.5938596841025134,2.6298990640237676,2.5405390462554034,-1.378988011581848,0.06276552101663324,-0.2529158337809647,-2.2985132703358873,-0.5597812406010577,-0.4771164350499082,-0.6401765597611853
7.805115699768066,20.165555982989154,3.535551166555981,2.6314976023024648,2.4807954817700546,-1.5024117354639859,0.02872753378581765,-0.11138732256045838,-2.1459323690325887,-0.5434405645331373,-0.5085323615858064,-1.5707963267948966
7.825132608413696,20.215158748865452,3.5050836346600183,2.6319645635415188,2.479932816649468,-1.5438516533536422,0.018023671769314922,0.024127750194460784,-1.9989903604367756,-0.5269163261673108,-0.5139512382486409,-0.27094383314172354
7.845131874084473,20.23893886838357,3.4887584078405727,2.6317961255171722,2.4525737946572552,-1.584958461897091,0.003765953950434425,0.14203179301835214,-1.8572413840271988,-0.5078050063807211,-0.5238638058358465,-0.49562837936028004
7.86519980430603,20.288026346787273,3.4566969484756855,2.63177115522266,2.456549496660232,-1.620734375163328,-0.006199447456702399,0.2546687081099027,-1.721309576738225,-0.488744382717931,-0.5263366901047926,-0.12364421344730481
7.885198354721069,20.335887435428507,3.422661624938359,2.631116603468697,2.4302279294852758,-1.6867579815319014,-0.026381562099757463,0.34704306971386145,-1.7152592560036035,-0.4658730249290613,-0.5426384024524169,-0.8150856173812171
7.9051666259765625,20.408305910943533,3.3706160814623805,2.6298927516414827,2.4233447141342603,-1.7567485400950873,-0.0463902817808104,0.4369001247484081,-1.7007703489468522,-0.4400644424969135,-0.5501219771009889,-0.37417873242859834
7.925157785415649,20.45686598805269,3.335142270405581,2.628878624113681,2.432950038655387,-1.7905611772349659,-0.05493841240994605,0.5230137528839934,-1.679357462839138,-0.4148468043126539,-0.5522407823892217,-0.1059402644116414
7.945098638534546,20.48076264086673,3.316722442396097,2.628162107784467,2.426862355449154,-1.8184811445763234,-0.06289006631950805,0.7008416082334895,-1.5886287978812295,-0.3896746647661959,-0.5553331118335252,-0.15461647221517438
7.9652814865112305,20.529451329417054,3.280041018918596,2.626828017572477,2.4425605806073234,-1.8493669850979808,-0.07043718486316543,0.8670704592768345,-1.5003627944343114,-0.36514356735196646,-0.5549493754907231,0.019186817140104395
7.985235214233398,20.57775836543763,3.2422583928073507,2.6252061962075226,2.4429893009392494,-1.8910047608628786,-0.08082697764237323,1.0051270728784472,-1.4182318996237926,-0.3398132436076251,-0.5614009739153931,-0.3225799212335012
8.005109310150146,20.651033514997145,3.1845783874792732,2.6225857150977805,2.4610437418697435,-1.9413061546352819,-0.09195406913859872,1.132071501005299,-1.2843717631283131,-0.3136334626011795,-0.5619343646137112,-0.02666953491590185
8.025133848190308,20.700488710868516,3.1455039756277356,2.620685609935076,2.4848620428875643,-1.965711321642439,-0.09797200298717544,1.2479355174136166,-1.157256600415895,-0.2883000289522897,-0.5614013199324943,0.02665223406084216
8.045135259628296,20.725065657416057,3.1254878617494066,2.619683574613239,2.4896522080152863,-1.9847650066959754,-0.1008201185658507,1.4344411930059622,-1.024225707017124,-0.26439456485388363,-0.5614698261893594,-0.003425312843252648
8.06569504737854,20.775157246756816,3.0855962561365633,2.6176158472313573,2.5200768062173307,-2.0039739886502943,-0.10587558267450073,1.605471692196599,-0.8977535060239015,-0.241283297592734,-0.5572282693118282,0.21207784387655693
8.085183382034302,20.82533304216149,3.0446997916701037,2.615446282382995,2.5385328904611,-2.0368974795101678,-0.11051501073246588,1.606168753586954,-0.7798271666047557,-0.21866038940026886,-0.5600936217887038,-0.1432676238437791
8.105135679244995,20.901975297611,2.9828584132031253,2.6120631650534136,2.5808411484741725,-2.069935029567676,-0.11594423475802065,1.6479043809598402,-0.6434479624338472,-0.19612928811850086,-0.5547563862341538,0.26686177772750064
8.12509822845459,20.953924353262686,2.9413397839041715,2.6097065144186695,2.6141948530879042,-2.0814953100953435,-0.11964852929949553,1.6870360997651606,-0.513668599941487,-0.17443924328882804,-0.5525069993610159,0.11246934365689576
8.145140409469604,20.980139668434486,2.920213283895652,2.6085575272487307,2.6312118932157627,-2.0940301831544117,-0.11958640088293974,1.6943105765214923,-0.44658311838425296,-0.15458501279772582,-0.550345329636893,0.10808348620614527
8.165515661239624,21.0331032316423,2.878247712050771,2.60613616816521,2.6651672255075742,-2.102311623920875,-0.12248583314242287,1.7011499162241408,-0.38196914892524425,-0.13548251790235386,-0.5446224049298847,0.28614623535041517
8.185301780700684,21.086991399623397,2.835712141916265,2.603731023300031,2.7063549637198756,-2.1182889492034715,-0.12324776769368023,1.746754843709808,-0.2062368643285507,-0.11743928644461366,-0.5422846302862845,0.11688873218000939
8.205108404159546,21.169257465045895,2.771874553012395,2.60002949375938,2.7673990086974194,-2.1287183018366385,-0.12521836249697046,1.7823080350410023,-0.038840039499847205,-0.09979972031325392,-0.5330231265584922,0.46307518638961653
8.225096702575684,21.224964099518527,2.7293031053252674,2.5975063062072192,2.8033711542656143,-2.127899941195044,-0.12704401047169292,1.814324178035268,0.1191212043072122,-0.08288484295301814,-0.5300023344989704,0.15103960297608854
8.245122194290161,21.25339876347687,2.7078379582130774,2.5962902604989235,2.829519469591372,-2.1316780121462577,-0.12605268305802064,1.7048497619008578,0.1757957850310407,-0.06758248378290214,-0.5259002720349844,0.20510312319930168
8.265294313430786,21.31032316273432,2.665243202531325,2.5937566783550787,2.862578008859306,-2.1276174758512383,-0.1272566613288745,1.6021127026202229,0.22982073799237177,-0.052921304005030735,-0.5194089327631821,0.3245669635901116
8.285200834274292,21.339409310036142,2.6437109924188245,2.592531482059802,2.8890013613388765,-2.1322687439255885,-0.126241651048109,1.5085473778923737,0.2756621151031055,-0.03964805179905477,-0.5183806371800816,0.05141477915502346
8.305129766464233,21.457156631366637,2.5584464024224203,2.587485505236848,2.9742797144383175,-2.124721212035074,-0.12690640309687004,1.5156781596441833,0.3417567115640173,-0.02628321572902307,-0.5031684980362909,0.7606069571895357
8.325106859207153,21.516945771469395,2.5160247343409132,2.584942980986762,3.004653729487249,-2.1172253964768264,-0.12730350301037832,1.5215086602118026,0.4078160135467634,-0.013527363419779143,-0.5018923951678764,0.06380514342072541
8.345189332962036,21.547719445184544,2.4949505195525394,2.5836739350731173,3.0384688825118102,-2.1104370423992744,-0.12721557413522447,1.5396024534738373,0.43665366754754437,-0.001761762696421305,-0.4952226498546395,0.33348726566184705
8.365275144577026,21.60879783062507,2.452831166609331,2.5811300275954165,3.069422067153366,-2.101393196765921,-0.1271378179604311,1.555324972132924,0.4681684949869568,0.00944510983744237,-0.4894780610476941,0.2872294403472697
8.385226726531982,21.64010788060705,2.4319687361084963,2.5798588599776817,3.1000341099882087,-2.0925162071112373,-0.12692529466202046,1.5498385339052092,0.5077488965618298,0.019781585444417698,-0.4859501078276214,0.17639766100363552
8.405165433883667,21.76594539806466,2.3489477793470344,2.57481528331256,3.176175601991309,-2.06471996228002,-0.12552251535159648,1.5048206899402785,0.5565334396009584,0.029994973574610385,-0.4704460836553359,0.7752012086142734
8.425132036209106,21.82976694729477,2.3077679900099275,2.572311486089315,3.2058341934389656,-2.0530929917831027,-0.12482494445220185,1.4612817833852696,0.6063262535114188,0.03967390227708309,-0.4688698089344401,0.07881373604479158
8.445114135742188,21.86223040835776,2.287501815073861,2.5710907630338897,3.2295261817758276,-2.0398049464115933,-0.12363264136422505,1.411315613841411,0.6641926287084148,0.048351231072672224,-0.4627679609914117,0.30509239715141856
8.465447664260864,21.927099957322604,2.246842415376728,2.56862833499746,3.2572683583405904,-2.025941957125974,-0.12258282975688513,1.3632079316505572,0.7221118259280894,0.05655114443440506,-0.4568501717439948,0.29588946237084635
8.485246181488037,21.993125058486605,2.206760216134608,2.5662000184313793,3.2993326828475924,-2.0039323800246986,-0.12114021348340459,1.3000076136747296,0.7623873714224444,0.06413969512513326,-0.44973852829440597,0.3555821724794406
8.505094051361084,22.09311496175529,2.147172714008514,2.5625910720640306,3.349936566413002,-1.9752929016967713,-0.1192645912206881,1.2379719834650347,0.8065935375335245,0.07140582025156268,-0.439148629276195,0.5294949509105473
8.525139093399048,22.160357284723407,2.1078311622245587,2.560220523424013,3.3740977785693973,-1.9587122515475777,-0.11776754060876396,1.1785853600403748,0.8516001330464489,0.07822562630618798,-0.43600031133381956,0.15741589711877335
8.545123100280762,22.19454233924403,2.088500891795517,2.55904326776154,3.3963100866387217,-1.9437609809050542,-0.11702792208907817,1.1249618105286237,0.8832848913618709,0.08441064258962634,-0.43056693322656203,0.27166890536287625
8.565307855606079,22.262690071429002,2.0498045190243044,2.5567199833017784,3.418291893330641,-1.9257655441754828,-0.11528126854381046,1.0735893068505358,0.9165092826981741,0.09018739017495557,-0.4246866725957177,0.29401303154221736
8.585214614868164,22.297298509126993,2.030786403739321,2.5555663446434136,3.4390569913093154,-1.9107710063199028,-0.11447386744949453,1.0232499930448167,0.9455341413517185,0.0954091930559424,-0.42149676020844984,0.1594956193633923
8.60506796836853,22.436177173868774,1.9553936958066296,2.5510585596653717,3.4911532136639214,-1.8655375893257429,-0.11071357974939008,0.9167428689901562,0.9774735482709974,0.10030741003684764,-0.4068713149336056,0.7312722637422109
8.625176429748535,22.506176738950426,1.9182803589780129,2.548864657454613,3.5084650726706292,-1.8457035101002173,-0.10866155313588098,0.8152746860098802,1.0052505631585393,0.10483400544570817,-0.4049897904075723,0.09407622630166479
8.645124673843384,22.541566476773767,1.900078417356645,2.5477850033543956,3.5237529370295855,-1.8295263516152993,-0.10753886145730758,0.7677167724716173,1.0382524734528895,0.10882049349292039,-0.39984294888023975,0.257342076366629
8.6653470993042,22.612192035106688,1.8636977859360815,2.545656239134042,3.538652789043388,-1.8084238089460882,-0.10532539244201432,0.7226834595467907,1.072146051249974,0.11247106247565165,-0.394239706582602,0.2801621148818878
8.68514895439148,22.68360395553398,1.8280001638540826,2.5435644399340007,3.564993337120666,-1.7805411969860199,-0.10324140567604753,0.6941686424964629,1.0878815165338378,0.11568630308691914,-0.3878695567836532,0.3185074899474394
8.705145120620728,22.791097092025456,1.7752253927178232,2.540519117624233,3.591867530211616,-1.74341196821106,-0.09973309912969729,0.6558287249231419,1.1047730260713091,0.11847571672410108,-0.37850616106604873,0.4681697858802236
8.725250720977783,22.8630631802335,1.7405793319877148,2.5385483220566973,3.6046219800232677,-1.7211313069347036,-0.09733813559311705,0.6200343157411062,1.1236110997604418,0.12097244351459555,-0.3751474909152237,0.16793350754125136
8.745122194290161,22.899260991898377,1.7235858108001367,2.5375901392774884,3.6137451712511814,-1.7050770698590345,-0.09583385919133272,0.5818350753236362,1.1459469865869767,0.12300192416983101,-0.3710774641748822,0.20350133701707573
8.76516580581665,22.97164984047087,1.6897150190914787,2.5356981847798594,3.625020638559697,-1.6819229288711945,-0.09335568914801806,0.5461196486609604,1.1696975607268638,0.124772458448726,-0.3653050378193017,0.28862131777902533
8.785207509994507,23.04436202210543,1.6565245119388798,2.53387787553198,3.637958769512294,-1.6529738519144557,-0.09028605951708472,0.5041042764951454,1.2034701360244342,0.12598142675392812,-0.3598800007958207,0.27125185117404804
8.805100917816162,23.153753909235785,1.6075870250418902,2.531244298359988,3.6534340905930582,-1.6135082507090233,-0.08597134883825835,0.4621280544221879,1.236947132358159,0.1266645945510949,-0.3509095292934572,0.448523575118176
8.825112104415894,23.226912331622323,1.5755665001099348,2.52955024009917,3.662275758297435,-1.5884314142311924,-0.08343284744508553,0.4224101321208457,1.2707949322019259,0.1271536206794963,-0.34721818836557095,0.18456704639431276
8.8451087474823,23.263552391384707,1.5598328477549666,2.5287433006661812,3.665769154824242,-1.5728600050532373,-0.08155556915660016,0.3540551754720538,1.3208898344610747,0.12725654853989923,-0.3438217036889766,0.16982423382971845
8.865411758422852,23.336934198521845,1.5286429093117715,2.5271376392175235,3.6721950129290484,-1.5459838629872507,-0.07901077963029551,0.28909032118854305,1.3658848019460839,0.12719544871121855,-0.33770701391483016,0.305734488707321
8.88520359992981,23.41048628280041,1.498013698999842,2.5256186029934256,3.678907179472257,-1.518164661980921,-0.07556766695600031,0.2366953770753477,1.399930261840003,0.12660059046931207,-0.3329436826490575,0.23816656328863317
8.905055284500122,23.521007600806573,1.4530676100808073,2.523434395411234,3.687122151828659,-1.476759573036336,-0.07103694368578185,0.21331599574787546,1.4363575347441921,0.12549572522507554,-0.32404542046755047,0.4449131090753511
8.925216674804688,23.59479121989512,1.4238218824236601,2.5220386771785654,3.691166576600475,-1.4477074580452114,-0.06853888407805786,0.1913613507579313,1.4680799504928956,0.12429442922290207,-0.31985966106689956,0.20928797003254562
8.945115327835083,23.631705594980957,1.4093916673343532,2.5213859675337886,3.692330982344428,-1.4333526855633272,-0.06655234693772123,0.14102899627530172,1.5180499488853438,0.1228292493029034,-0.31699517001195554,0.14322455274720092
8.965224266052246,23.705577222827547,1.3810312717855706,2.520079385066626,3.694674520910425,-1.402539113954804,-0.06411102910675513,0.09384338917833107,1.5623789353318749,0.12129049569298594,-0.3103709767442777,0.33120966338389124
8.985200643539429,23.779450002438118,1.3531976354561386,2.5188648301122987,3.6955391402401445,-1.3728758554256857,-0.06061046937636523,0.09198014988713503,1.670233906151918,0.11929437406593534,-0.3056630804063807,0.23539481689485164
9.005159378051758,23.890307361122552,1.3126370317954474,2.5171304096588156,3.69681863460673,-1.3256851867177784,-0.05618207070171747,0.10070185040719842,1.7724848937969024,0.11684189083765618,-0.296126034789594,0.47685228083933495
9.025168895721436,23.964264463307693,1.2864842016097426,2.5160299725967983,3.698921157613445,-1.2892862387866002,-0.05386984499506822,0.10957358850529973,1.8659664357801515,0.11437906390083981,-0.2906346871965466,0.27456737965236844
9.04509687423706,24.001148775990853,1.273498522056273,2.515532578320621,3.696681359867862,-1.2753739227699055,-0.05171773427720609,0.10140645097357308,1.9443984988893634,0.11172111555040437,-0.28835380243707087,0.11404423797378715
9.065265417098999,24.07510217813611,1.2483847675630864,2.51452039105276,3.69863415936755,-1.2357656321778507,-0.04950982586405579,0.09399736937733963,2.0151700601915605,0.10907112330280423,-0.2799264600961875,0.42136711704416907
9.085225582122803,24.148848051453882,1.223608664827657,2.5136214349905495,3.6942407922813243,-1.2063822751231077,-0.045599005535415474,0.08623853397665139,2.1014433349954444,0.10591780730470994,-0.2757304560293141,0.20980020334366856
9.105095148086548,24.259544323412605,1.1880617603451862,2.512348511244572,3.691936273536328,-1.1511481632156924,-0.041101161932231005,0.08053143887975676,2.1889413964712596,0.10229190548848144,-0.26455864089229975,0.5585907568507187
9.125129222869873,24.333398815813176,1.1654819745399068,2.511546708572733,3.693496668584208,-1.1065682542365594,-0.039090931115368543,0.07564150740345951,2.267594080984598,0.09874413351649172,-0.25740091260490416,0.3578864143697791
9.145129442214966,24.370173772447586,1.1542718540171257,2.511205387598651,3.689633472597426,-1.0906560726576164,-0.03686445281013081,0.08112383497877348,2.327732034454352,0.0950823931960299,-0.2550450902407069,0.11779111820986454
9.165341138839722,24.443983050798284,1.1329279122728748,2.510486875430092,3.6913138671169334,-1.0435626093286114,-0.034998668693411415,0.0869747725268987,2.3803830872442124,0.09151098034260916,-0.24493682154237373,0.5054134349166572
9.185172080993652,24.51758491712443,1.1121078408864928,2.509876343101655,3.686987959161419,-1.0060436417630947,-0.03142418017760183,0.08820011268318138,2.4227645172319483,0.08756919582396155,-0.23894785835857268,0.2994481591900522
9.205105066299438,24.62806296036551,1.0827913920546488,2.509017359045855,3.6838841278045495,-0.9400858771050313,-0.027574198125697048,-0.016647625352058968,2.36932170430665,0.083290262225161,-0.22546008210065693,0.6743888128957876
9.225129127502441,24.70173077689959,1.0644600030207434,2.508482255124903,3.6825781460055467,-0.8932293655606361,-0.02594997478874738,-0.11246548719586912,2.3164199937458365,0.07915597574141933,-0.2175033514778706,0.3978365311393173
9.245103120803833,24.73845403182042,1.0555509448682343,2.5082607845205325,3.678293886785664,-0.8727061328450493,-0.02426468900584908,-0.1874091473931385,2.2774999479922267,0.0750978115141854,-0.21399814814610885,0.17526016658808707
9.26520562171936,24.811977818793032,1.0385497064406253,2.507790246940225,3.6738607192072625,-0.8275488378278194,-0.0228021186099003,-0.25464011907238776,2.238161992495905,0.07118289437139698,-0.20428316926528955,0.4857489440409646
9.28526496887207,24.88558453642779,1.0226291263686522,2.5073625264252284,3.674074032127477,-0.7777973760101161,-0.02116244991292145,-0.20665790419457827,2.2273871426654392,0.06738778614979206,-0.19444425883875827,0.49194552132656444
9.305113792419434,24.995837385169086,1.0005107330717689,2.506742558196997,3.671414118733628,-0.7047196786148252,-0.01963536188857934,-0.17299650205618383,2.2460011363854178,0.06375366057529311,-0.17876841071419936,0.7837924062279455
9.325120687484741,25.069233279275426,0.9868665369776625,2.5063623660794137,3.6682852880667434,-0.6596540674838233,-0.018395520511574157,-0.1399978113162081,2.259762366776351,0.060252428530761834,-0.1700662469087364,0.43510819027314795
9.345112562179565,25.105905772855287,0.9805612911449353,2.5061601397559423,3.6667338160808054,-0.6321711699891842,-0.01842465538911408,-0.11684902445871558,2.248948283179497,0.05718427950860449,-0.16421241573713186,0.292691558580227
9.365543842315674,25.179218614245748,0.9683668029000309,2.505802884346439,3.664626918003359,-0.5873225683968026,-0.017310754543346747,-0.09387083706788225,2.2354754551431073,0.05422355387290551,-0.15380050660927314,0.520595456392936
9.385223627090454,25.215716795948907,0.9627257930711409,2.5056192834584783,3.6588574756177943,-0.5620565697820525,-0.01715773287356965,-0.1678951560359693,2.175755179934263,0.051585674106309466,-0.14866430855729584,0.2568099025988646
9.405068159103394,25.361738924956267,0.9422322339261684,2.5049558336328963,3.647029927871568,-0.46916435984838,-0.015618770730883219,-0.232153324266404,2.112348302530838,0.04900020289663282,-0.1261802560564016,1.1242026250447124
9.42514443397522,25.434629151362802,0.933267266917706,2.5046530903376363,3.6418012559858117,-0.4275385325361997,-0.014663881495310208,-0.289593567952303,2.05049040335433,0.046503367712138324,-0.11639525393577177,0.4892501060314913
9.445082664489746,25.471023252554165,0.9293172160120868,2.5044759354220716,3.6387633082452466,-0.4007888535431971,-0.015202277036975477,-0.3002851848304385,2.0227611769391705,0.044447269097861154,-0.1095603752904708,0.3417439322650484
9.465334415435791,25.54373791798037,0.9217041001404229,2.504180645380401,3.6326788137284356,-0.3606179766469207,-0.01433337333389873,-0.3076133027212942,1.9941888387583933,0.042453392074886485,-0.09899390389192675,0.5283235699272026
9.48518705368042,25.616491162469195,0.9153542897765717,2.5038301224320616,3.630434624803951,-0.30948368993916126,-0.015320292300279129,-0.3175953096086959,1.9612317233620475,0.04099607889699459,-0.08516441740087588,0.6914743245525434
9.50511884689331,25.725329187605077,0.9072196003349636,2.5033437115487245,3.622973858357455,-0.24286105383370252,-0.015377710043232207,-0.28611324356053025,1.9946087541438215,0.03982156697110133,-0.0680120084616056,0.857620446963514
9.525179386138916,25.797733543041254,0.9027632359078006,2.503044043982424,3.617566752629636,-0.20268340812808566,-0.014592920091902776,-0.25459352729520845,2.0222056120549063,0.03865951797249444,-0.05879796338062748,0.46070225404890586
9.545119285583496,25.833876632531762,0.9009953142703898,2.5028641935519773,3.614478451005144,-0.17809894469722054,-0.015210913342228152,-0.2287668992314369,2.0357252131060175,0.037799338606549784,-0.05313185035806178,0.283305651128285
9.565237760543823,25.906122181057448,0.8978411550047722,2.5025674775634643,3.610163216355222,-0.1372869709030846,-0.014463568800538031,-0.20272298921652326,2.0447306745017775,0.036934360034097835,-0.04320396256486436,0.49639438965987104
9.585220336914062,25.978086322250377,0.8955357844878902,2.5022581714732177,3.6012418033193607,-0.09569034461807951,-0.014370089582849266,-0.16848038267992355,2.0659941176877172,0.03619243302584373,-0.03398487148502438,0.460954553991999
9.605202913284302,26.08588597002401,0.8935493359530642,2.5018331191453385,3.591781310634883,-0.03618193546369554,-0.013578054479471486,-0.1427456475687717,1.9273365959783717,0.03543642457557568,-0.020374057219335828,0.6805407132844277
9.625287532806396,26.15769473273722,0.8932021028132299,2.5015685944623427,3.589178738437395,0.001008545449500617,-0.012876965403908749,-0.11761244569527343,1.7923129481914195,0.0346709600549087,-0.013427759851647902,0.3473148683843963
9.645159482955933,26.193435844042067,0.8933437664955794,2.5014291620315783,3.5840156215391694,0.019473425777793367,-0.01291950529631553,-0.10613663697793163,1.676987066819979,0.034007006057579586,-0.00980638886728702,0.18106854921804416
9.66525673866272,26.265095712131558,0.8940610789854891,2.501177528376045,3.582010620990919,0.051882386233497196,-0.01224611891599667,-0.0943070879271961,1.5643554600201828,0.0333294204496575,-0.002555918654330025,0.3625235106478497
9.685156345367432,26.33650857327593,0.8959127170575214,2.500888612341252,3.575247505424312,0.09598079828493049,-0.012929633781453323,-0.06638942807370264,1.5356789241076734,0.032938513228766904,0.006375832999256481,0.4465875826793253
9.705124378204346,26.4436138261859,0.8998513333294368,2.5004676504739516,3.5699872096555207,0.15205603988364913,-0.013307359458225794,-0.03877043599222981,1.500926233802453,0.0327855962590947,0.017709548941170272,0.5666857970956896
9.72521424293518,26.51500757955634,0.9031901044404745,2.500208047917106,3.5694750059374902,0.1816907584526196,-0.01265355810223611,-0.0127063187492322,1.4618348764598337,0.03258705791146078,0.021891942618721405,0.20911968387755664
9.745120525360107,26.5505799832324,0.9053144930712859,2.500045640996397,3.565917597350562,0.20243043759438573,-0.013365053554867393,-0.008327959343884457,1.428103024826142,0.03258950521906574,0.026013511417989577,0.20607843996340858
9.765208721160889,26.6218969732838,0.9096462687374536,2.499784855180172,3.565796784424867,0.2306210936353394,-0.012713706406588844,-0.0037151467948734465,1.3902947183538485,0.03253603203253073,0.03146995567717292,0.2728222129591673
9.785149335861206,26.693023374894587,0.9147436623796946,2.499509710547716,3.561175232972494,0.2629783505859853,-0.012686974908074253,-0.00028136278583204365,1.3544970844971878,0.03251070211461913,0.037038476906821494,0.27842606148242854
9.805150270462036,26.799778897393495,0.9233104991572941,2.499137292178253,3.5589470058920782,0.3046434902227452,-0.01188984441037421,-0.0035471508694050846,1.2494611526569175,0.03238467916908832,0.0446080285782946,0.37847758357365535
9.825142621994019,26.870956954117734,0.9296463067796674,2.49890596134079,3.558850687011658,0.3285903599202279,-0.011243824248616837,-0.005941389102720786,1.14538784195528,0.03220923180266414,0.04740977086188769,0.14008711417965447
9.845085144042969,26.90650797084775,0.9330823137156755,2.4987887561313866,3.5578805858068496,0.342493614917554,-0.011117178863112755,0.0031583154769992917,1.1093072451676729,0.03201037367017339,0.049970929651740104,0.12805793949262068
9.865075588226318,26.977666827072987,0.9401514689391426,2.4985727991126505,3.558035777535249,0.3642901511204882,-0.010479335781248576,0.012380388070118667,1.0697823589881454,0.03176656729103253,0.053850116626211975,0.19395934872359355
9.885141134262085,27.04881449402301,0.9479553132962548,2.498351258416394,3.558024626161295,0.3930895989300657,-0.010306207701455902,0.025686105026920474,1.0637731256489307,0.03152193888879815,0.058235697697893496,0.21927905358407607
9.905119895935059,27.155549901197762,0.9603325178195237,2.4980493278078795,3.5577877029759004,0.4270804676077817,-0.00954041141576676,-0.03715532263613658,0.9796960049659111,0.03118876677030086,0.06361425623902406,0.2689279270565281
9.925091743469238,27.226694310417614,0.9690645008870568,2.4978647332776167,3.5564620557532423,0.4458402360636956,-0.00892027449851754,-0.0945067734091587,0.8964154501162237,0.030818922242112093,0.06526068817807795,0.0823215969526947
9.94512128829956,27.26228521671334,0.9735962406339985,2.4977800875711207,3.556249580100484,0.45496706644789153,-0.008518532732644728,-0.13162961781588584,0.8272578322958029,0.0303720317766156,0.0669000769592758,0.0819694390598924
9.96515679359436,27.33338158324751,0.9828563971014838,2.4976157600860445,3.553275002882379,0.4708163499985521,-0.007915801159629306,-0.16525225114635017,0.7575895731207875,0.029896435155911776,0.06949256421852201,0.1296243629623106
9.985152244567871,27.404656010447106,0.9925579089109783,2.497471216100957,3.555954554239707,0.4881275867394918,-0.007134276864839485,-0.19856197774795728,0.606934511752058,0.029278501856233815,0.07125331120067147,0.08803734910747263
10.005112171173096,27.51144320693225,1.0076328570616748,2.4972733378294225,3.555395448120555,0.5098764295106525,-0.006182439335491212,-0.2289448154198925,0.46579699587949946,0.028537671597471347,0.07429093317356461,0.15188109864465726
10.025115013122559,27.582503479410047,1.0179143968335655,2.4971553467737504,3.5505423466440935,0.5178244468256146,-0.005619163004386614,-0.2557822903528632,0.3298653306953914,0.027788650657436822,0.07408531558419362,-0.010280879468549387
10.04517936706543,27.618175006553788,1.0233228485390453,2.497099880660253,3.55265432172968,0.5263088916207874,-0.005373539363139269,-0.3016594415287149,0.2133501257093941,0.027041859132904363,0.0759340302414162,0.09243573286112916
10.065311193466187,27.68916490974526,1.0338841180053482,2.4969977681733138,3.546196833411829,0.5294422676489868,-0.004840217395226111,-0.3434103818079246,0.10061310340105743,0.02628944942530118,0.07582097343553729,-0.005652840293945971
10.085220098495483,27.760309627006592,1.045034086188094,2.4969043615642823,3.5462871066405075,0.5441690224608505,-0.004357368382517711,-0.38046790101306893,0.002679146002451696,0.02549205616754041,0.07758301728090977,0.08810219226862426
10.10513710975647,27.866724363565176,1.0616871064813374,2.496788866035051,3.540415536284388,0.5536544986507229,-0.003480435947136812,-0.3892803779549355,0.035345930385153594,0.024587666666684917,0.07807494505011814,0.02459638846041834
10.125157594680786,27.937454335607917,1.0727692930844055,2.4967241149458537,3.5325592581529213,0.5546630638263047,-0.0029976615531240704,-0.3960043245411998,0.06501786540895685,0.02369109663016814,0.07710575997538394,-0.04845925373671012
10.145119428634644,27.972925085498648,1.078456420463995,2.496705774949992,3.533204147564828,0.5588155287491996,-0.0024545239804243373,-0.3970713498845057,0.07149121158725048,0.022735921399101945,0.07834472167921591,0.06194808519159878
10.16528058052063,28.043509769374594,1.0896473726415379,2.4966611686758733,3.5252664145716306,0.5602954110126059,-0.0020092406723842262,-0.3964198518784042,0.07620867538885129,0.021794750507823247,0.07806452329265934,-0.01400991932782869
10.185163736343384,28.11410444615682,1.1007028388694031,2.4966536847833627,3.521294426277911,0.5568073962992317,-0.0008552363994095925,-0.3981951108388495,0.040919977560158256,0.02064924119080971,0.07627382445472808,-0.08953494189656297
10.205116033554077,28.2196116071532,1.1172244629970474,2.496659516356468,3.5105546688841236,0.5521480600972453,0.0003894225784531393,-0.40636435505457924,0.021577353649161933,0.01931071602953318,0.07506431194765595,-0.06047562535360651
10.225099325180054,28.28974096688497,1.1282703360001,2.4966710799124923,3.5023596451291077,0.5523671906896696,0.000762617394866497,-0.41286274412926555,-3.618238282970995e-05,0.018016016637642365,0.07437619590422573,-0.03440580217151101
10.245141506195068,28.324762769338538,1.133603138225022,2.4967021417608577,3.4986842476077396,0.5468967842025568,0.0015744500910152546,-0.41911014420828274,-0.006068810896791839,0.01663978422114483,0.07380834211947285,-0.028392689237644042
10.265247344970703,28.39465228956731,1.1445393033047886,2.496736869520167,3.4902518556305626,0.5466893486109574,0.0018939079761839488,-0.4238865719625155,-0.01517974980372853,0.015314411137397642,0.07374274168954775,-0.003280021496254726
10.285205125808716,28.464393573777443,1.1552221663422266,2.4968129156757657,3.4823166773990084,0.5404747478183347,0.003061162748761871,-0.4190917958262309,0.024038405797514872,0.013815890441786263,0.07144237983914747,-0.11501809252001394
10.305145502090454,28.568674587174375,1.171230856177258,2.496931980957574,3.469717070234482,0.5351042532205941,0.004056675479006747,-0.41729944540511504,0.057381504459822236,0.012192967605319712,0.07031265379704443,-0.05648630210515204
10.325146436691284,28.637985637004157,1.1819464716176875,2.4970154485990728,3.461397131288343,0.5365572225345046,0.004284927144964887,-0.4145342741355112,0.08736250340100096,0.010644485815921142,0.06983655613305517,-0.023804883199463056
10.34528660774231,28.672557364918593,1.1870208296960991,2.4970763211609803,3.456367480903306,0.529038174429596,0.004870067153071745,-0.4429047599967142,0.1088255252490579,0.009104207824422266,0.0688798396681074,-0.047835823247388554
