t,x,y,z,vx,vy,vz,ax,ay,az,yaw,yaw_dot
5.894830942153931,-2.749220550703502e-06,1.336311989225367e-06,2.0080020466125825,-0.0004109851838024796,0.00019978853392080452,0.00031901109790369965,-0.04081927142393473,0.019847356278233703,0.03169525189443805,0.031415926535897754,1.5707963267948966
5.914739370346069,-1.0801451076932378e-05,5.245174446153641e-06,2.008006242706451,-0.0012104265929588382,0.0005875162017746074,0.0008510832846256433,-0.07993913336462359,0.03876953542589405,0.06224271377072042,0.06283185307179551,1.5707963267948966
5.93486475944519,-5.352388595518388e-05,2.597255185622528e-05,2.008037688470585,-0.0031867646121111048,0.0015457442332891932,0.0023912618114610928,-0.11742377760574145,0.05692649670026889,0.09157355595204517,0.09424777960769326,1.5707963267948966
5.95479941368103,-2.9006421997935632e-05,1.4450355678361465e-05,2.0079455120584337,-0.0027906633180654196,0.0013670580082253219,8.108602623465222e-05,-0.15028571603494556,0.0730196583330577,0.12024194254813769,0.12566370614359101,1.5707963267948966
5.974788665771484,-0.00011699508684735304,5.743407694162158e-05,2.0079730336426604,-0.006112915077635037,0.0029826786326327503,0.0027626568570363313,-0.1816995829123549,0.0884291510440005,0.1477175162886511,0.15707963267948877,1.5707963267948966
5.99480676651001,-6.491112954263552e-05,3.40621445761936e-05,2.0078307354382465,-0.004670404574379259,0.0023145851212706538,-0.0005470133409964848,-0.21119484374785943,0.09973231187133959,0.17442177287167163,0.18849555921538652,1.5707963267948966
6.01484751701355,-0.00020245609588148578,0.00010102771614313285,2.0078564015733584,-0.009177854400778734,0.004417909742944378,0.0031987650579402586,-0.23932382620493306,0.11051373179010582,0.19996346660092076,0.21991148575128427,1.5707963267948966
6.0349860191345215,-0.00020243023704428952,0.00010981929457518366,2.0077429160242133,-0.008296996759912642,0.004200403483773458,0.0022278758870160264,-0.2508171482128577,0.11964439390699426,0.22589958481780364,0.25132741228718203,1.5707963267948966
6.05479884147644,-0.00043576447611877006,0.0002369937481904908,2.007814388914779,-0.012327707558443398,0.006431221004861904,0.006490998370636192,-0.26170004992545,0.13363816685540858,0.2543734022861518,0.2827433388230798,1.5707963267948966
6.074828863143921,-0.0007353490462958845,0.0003932474218631084,2.0079969168620435,-0.017664688624751564,0.009238709218110108,0.011852386066808286,-0.271881943940836,0.1470071488016771,0.2815505793118016,0.31415926535897754,1.5707963267948966
6.0949883460998535,-0.0008383263102154502,0.000452138234158889,2.008035401355071,-0.018048831059804527,0.0096706836971703,0.012127682577282223,-0.28192337285142494,0.16065584936119448,0.30027197861283256,0.3455751918948753,1.5707963267948966
6.115419387817383,-0.0016916004803938726,0.0008948827367045208,2.008592824287155,-0.02737284835456127,0.014428310689957653,0.020198630080255,-0.3167288995939038,0.17382866750661147,0.31145132367997913,0.37699111843077304,1.5707963267948966
6.134888172149658,-0.0023046387929993068,0.0012190608599769565,2.009059798429969,-0.034041357643111794,0.018031280529653727,0.026533785087560952,-0.34984167491014534,0.1863624657353043,0.32195173178964537,0.4084070449666708,1.5707963267948966
6.154865503311157,-0.002613001836862298,0.0013717810217532417,2.0092811390591567,-0.0365075622088126,0.018946687817619632,0.028259723130614808,-0.39849464098357934,0.19725836890000542,0.33561180455611794,0.43982297150256855,1.5707963267948966
6.17618989944458,-0.003425978106967161,0.0017908646494630032,2.009914326505381,-0.04494442631839624,0.022996118070473838,0.035101889785839564,-0.44480359468873365,0.2075914181923437,0.3484724597654787,0.4712388980384663,1.5707963267948966
6.194897413253784,-0.0037974868801256265,0.0019860971761918793,2.0102602074062808,-0.046940208912943225,0.023292330249714853,0.038037124036867084,-0.49806957605730023,0.1439380959049326,0.34958776240648165,0.5026548245743641,1.5707963267948966
6.21535587310791,-0.004839324141066513,0.0024766055115750733,2.011090924888377,-0.057412293246155315,0.025554157240212896,0.045037217006616816,-0.5487029712260006,0.08263382385484172,0.3503656893792569,0.5340707511102618,1.5707963267948966
6.234795808792114,-0.006442674803399207,0.0033614674546863046,2.012623286323592,-0.06581027479104043,0.03026408624835888,0.056170228893672035,-0.5693893284770756,0.03906914819714402,0.3364831490878277,0.5654866776461596,1.5707963267948966
6.254816770553589,-0.007788988735008467,0.004050918057169632,2.013839951699222,-0.07480076099332747,0.032902368356478966,0.06384786274722551,-0.615912185361745,-0.054969290666589704,0.3448847914346656,0.5969026041820573,1.5707963267948966
6.274790048599243,-0.00941116196008415,0.004691890659329757,2.015186415004193,-0.08756325624493738,0.030893963962119405,0.07082440902465167,-0.659921165622988,-0.14524842534559235,0.3526673052530763,0.5857773146793859,-0.5562644751335721
6.29479718208313,-0.010189189639177948,0.005205037099872301,2.0159573636253407,-0.09061146864562299,0.03494501033471663,0.07550142134167478,-0.6733178557863791,-0.22536542496359876,0.33743133809146336,0.6171932412152836,1.5707963267948966
6.3148791790008545,-0.013079868347354246,0.006507056238379872,2.018406777574604,-0.10702271070612193,0.03915200191910633,0.08686516609266626,-0.6524681110993116,-0.12867188632332238,0.3824785204694805,0.5857773146793859,-1.5707963267948966
6.334832429885864,-0.015349402532111108,0.007270624392380834,2.020223470473544,-0.11985963668526436,0.03751489706280487,0.09494700909228583,-0.6311470007921017,-0.0356460442082852,0.42534457035185425,0.5713023806659177,-0.7237467006734111
6.35480260848999,-0.017807354767287346,0.008315963377876918,2.02213125770803,-0.1311174139298524,0.04402204045478678,0.10110969963100915,-0.6198374070275576,0.05437334092755847,0.4663418891193596,0.6027183072018154,1.5707963267948966
6.374764442443848,-0.020552878126359503,0.009213104203637015,2.0242493481306383,-0.14339466897115913,0.04598039743730892,0.11082900605288713,-0.6077617754254808,0.1408806661886877,0.5052413668393293,0.5713023806659177,-1.5707963267948966
6.394761085510254,-0.023616072906822518,0.009985411609970693,2.026296359469663,-0.15721092573147186,0.04431203063308055,0.11495653027157796,-0.561459906094326,0.22191518325790266,0.557399240050076,0.6027183072018154,1.5707963267948966
6.414771556854248,-0.026933810881046082,0.010767158210071546,2.028644275247633,-0.17046683598985055,0.04457204933377822,0.12378291820369228,-0.5525485174279622,0.3290094861665661,0.5284134996075547,0.5713023806659177,-1.5707963267948966
6.434733629226685,-0.03045302118745382,0.011731315290543472,2.0312237169080665,-0.18142169603617808,0.0521856375769275,0.1340668243699344,-0.542799207826835,0.4316040846720583,0.5000863526840429,0.6023995921273602,1.5548605730721254
6.4547669887542725,-0.03439855646950754,0.01235896380652766,2.033891467660262,-0.1971946061853839,0.048749547475469744,0.1419075445832972,-0.5055207732733764,0.5148307814438928,0.5333310004764914,0.570983665591462,-1.5707963267948966
6.4747302532196045,-0.038441083215307946,0.013442283135979241,2.036838407955603,-0.2069348543743683,0.059847414898008135,0.1528911045565491,-0.46855660322321235,0.594340400462022,0.5647172853280491,0.6014277718018199,1.522205310517899
6.494822025299072,-0.04068256122464752,0.013714903751143473,2.0383235020503605,-0.21579648834232198,0.0562919585042103,0.1566618211743887,-0.45612809581806457,0.6610941738799966,0.5791597711747463,0.5700118452659222,-1.5707963267948966
6.51471209526062,-0.047547109656948694,0.015319649122702854,2.043203467834752,-0.2345670046885044,0.06592338729848093,0.17189441030713337,-0.4338333807685747,0.7344770211302831,0.5979929748388828,0.5926671861642356,1.1327670449156724
6.534855127334595,-0.05232372346745844,0.016789726653575768,2.046762142593052,-0.24301962073129657,0.08131714266722112,0.18403134521660217,-0.41140680268639546,0.8043108525408703,0.6154771828147673,0.5825730853370592,-0.5047050413588217
6.556469917297363,-0.054949035063319274,0.017310695621158195,2.048609758860701,-0.25171411642392066,0.08060560110582436,0.18984628567025089,-0.36430157068581664,0.8830119335223565,0.6430305503157941,0.5911106431820419,0.4268778922491334
6.574849367141724,-0.06005307635493035,0.019104463059137877,2.052537039074208,-0.2585355932204906,0.09902058888807679,0.20296769106273882,-0.31797564620631846,0.957846628614243,0.6688175573776142,0.6152142142224841,1.2051785520221125
6.594926357269287,-0.06560949816549164,0.020710309384994643,2.0567339770262745,-0.27300711451334553,0.1045540606161785,0.21658213310754126,-0.3071609636784288,1.0198169269278556,0.6724882302751582,0.5837982876865864,-1.5707963267948966
6.614765405654907,-0.0741590571747709,0.02395740831187004,2.0635624031400153,-0.2880745550541157,0.12587134811698125,0.2376922551758361,-0.2591724835573102,1.0879661812007295,0.6827013183031356,0.6152142142224841,1.5707963267948966
6.6348114013671875,-0.07996922809554709,0.026696788954611105,2.068453412580435,-0.29278554295464304,0.14828171333368864,0.25143895319289244,-0.21207416205712892,1.152466136709983,0.6917808798121271,0.6105265538779601,-0.23438301722620292
6.654716968536377,-0.0861817533060229,0.02946073959172695,2.07367813000407,-0.30471222647702156,0.1611524776913937,0.266718588664067,-0.18457630616061138,1.208439726164581,0.6797711521595854,0.6212711426156718,0.537229436885589
6.674849510192871,-0.0923110903234519,0.03292904311208821,2.079147642605557,-0.30813051098737543,0.18585343678360525,0.28019179109716447,-0.1572870503722701,1.2611091980825184,0.6675071182002914,0.6235486037814586,0.11387305828933769
6.694848537445068,-0.09560115817775902,0.034621774125309375,2.0820546270305487,-0.31499551094370737,0.1925331409756708,0.28847510661947245,-0.11343400915583789,1.3147887819176078,0.6063549579452866,0.6185526416453642,-0.2497981068047217
6.714705467224121,-0.1052916317907685,0.040777726461977935,2.09111345972853,-0.3226772115897335,0.22616900451417996,0.3100523745106365,0.020657065655555175,1.3288788875289224,0.5470127679424196,0.6406155724499567,1.103146540229627
6.735313892364502,-0.11173234384429125,0.04556774027709557,2.0974200376752696,-0.32096290709138015,0.2528739290347448,0.3204132076436592,0.1499839938197634,1.3413449026519297,0.48934870669691716,0.6192814046826967,-1.0667083883630024
6.754807233810425,-0.11515980203596685,0.04803744903089982,2.100797622672244,-0.32548996448196726,0.2632543632719268,0.3290993979352143,0.2143125092194634,1.3877559706917968,0.4348886152984874,0.6504510122950733,1.5584803806188319
6.774871349334717,-0.12857437943749875,0.059573582805047195,2.1145826998615846,-0.3303015639929628,0.3167093837237269,0.35263223208801014,0.2827096592910066,1.4282219510607956,0.3817649750819566,0.6190350857591751,-1.5707963267948966
6.7948126792907715,-0.1351194173159682,0.06619596598051919,2.121708233672599,-0.32398144500132664,0.3456540644721678,0.359749245613367,0.34894371291011783,1.4657618223529112,0.3301936688600948,0.6504510122950729,1.5707963267948966
6.814799785614014,-0.13863749369876457,0.06970938632773613,2.1254336081085574,-0.32840656580219946,0.36001398095863535,0.36573090420516996,0.394764897974295,1.479214590085665,0.28169011067309874,0.6235073594547353,-1.3471826420168753
6.834806680679321,-0.1451236994561812,0.07720630614180705,2.1328014032229983,-0.3200667414748149,0.38971621850206156,0.37089175980988226,0.43894575982129863,1.4906805022910778,0.23463561250085438,0.6549232859906331,1.5707963267948966
6.854808807373047,-0.14857942649243508,0.08116479145856091,2.1366529122360958,-0.3236381908969964,0.404465470701713,0.37667323531484026,0.40526400906701543,1.5040863408691445,0.20633336449239334,0.6235073594547353,-1.5707963267948966
6.874798059463501,-0.15497330606134485,0.08955571282964868,2.14422579567225,-0.3158569214024572,0.43466476382607633,0.3805233552317192,0.3731170484677055,1.5155160538891754,0.17880730675063655,0.6549232859906331,1.5707963267948966
6.8948893547058105,-0.1614349867654128,0.09859404613800223,2.15206371695621,-0.31257793809683865,0.4658965373234227,0.3883616741854583,0.436523184066582,1.479546909544724,0.1367487980581154,0.6235073594547353,-1.5707963267948966
6.914740324020386,-0.17062673167114487,0.11333744133041854,2.163869051241702,-0.2993906985685583,0.5129742725346118,0.3947450264312769,0.4851573355489154,1.4346604347197651,0.096474741088535,0.6459102405458172,1.1201440545540953
6.934802532196045,-0.17651435898356138,0.1238808774296827,2.1717806252992284,-0.28921571558200393,0.5412204506333925,0.3962823603072324,0.5320527837864258,1.3899944769932115,0.05746879641266496,0.6156351196169885,-1.513756046441439
6.95487380027771,-0.17939214047361426,0.12954492687317234,2.175815670262443,-0.28382659013888634,0.5601990449679197,0.39848800601992646,0.5861991890174038,1.3572187323571112,0.02108736124765018,0.644280715848689,1.4322798115850244
6.975202798843384,-0.1904015915298218,0.15346331285302325,2.191882373720104,-0.26287806838156175,0.6250874285582037,0.40159056451719743,0.6630117643676835,1.3513661153368752,-0.01359612600647629,0.6128647893127912,-1.5707963267948966
6.994889974594116,-0.19552158552875934,0.1662348812817166,2.1999092105738027,-0.24887566010930642,0.6520457027306793,0.4009813045482681,0.736713820781774,1.344252996914545,-0.047141236321012844,0.6198682715305588,0.35017411088837935
7.014793634414673,-0.19805547605440688,0.17307883185133582,2.2039422201548042,-0.24325085610643066,0.6728177694940477,0.4009576295059517,0.8087596392750261,1.3556156410944191,-0.07822879620467026,0.6086327978911044,-0.5617736819727215
7.034862279891968,-0.20275408893097227,0.18680697039283276,2.21194370719028,-0.22638031069241624,0.7000274747063341,0.39909095706685604,0.8777965177006604,1.3650331477402848,-0.10826409313586662,0.607532821934365,-0.05499879783696926
7.0547990798950195,-0.2073338069809203,0.20138741912202243,2.2199932213679032,-0.2141143463095529,0.7348821798235663,0.39896565085817587,0.9257324868291461,1.382509875271443,-0.1360393034498623,0.5974476765089891,-0.5042572712687932
7.074812889099121,-0.21142785750920629,0.21636261931192305,2.227943523542522,-0.1951379630160012,0.7626887434369258,0.39597522385259193,0.9715559813213422,1.397781695138822,-0.16284231979717956,0.5933443533705578,-0.2051661569215657
7.094875812530518,-0.2134636299298035,0.22418722703053692,2.2319624678536583,-0.18963139578166488,0.7797905053561439,0.3964993508159193,0.9031903949448539,1.3427698827661887,-0.13035784144318202,0.5909770323146777,-0.11836605279400558
7.114662170410156,-0.21878943351342614,0.24831247929552755,2.243840918958628,-0.16368749002515276,0.8236161981212198,0.3937324426117857,0.8672607463729525,1.3152941179204973,-0.11818462211191448,0.5720609873641509,-0.9458022475263395
7.134819507598877,-0.2218920686343349,0.265046017764867,2.251692714992814,-0.1466919377366355,0.8496452264040898,0.3914859119233225,0.8324858222383407,1.2875675180280783,-0.10655917352679005,0.574215651720198,0.10773321780235268
7.154782772064209,-0.2244734643347062,0.282567237753278,2.259481845277214,-0.125128494075443,0.88209997821488,0.3888461848479271,0.8017891096018709,1.2586168105915212,-0.09323873275625838,0.5563667574234206,-0.8924447148388692
7.175152778625488,-0.22681767315858536,0.3004590217034641,2.2672409785602503,-0.10939140379026796,0.9069813221550267,0.38710950203244826,0.7720842748546497,1.2294885232812156,-0.08053103166657201,0.5566820925358673,0.015766755622337314
7.194873332977295,-0.2276414387240802,0.309799429785353,2.271064198002334,-0.09556463702519584,0.924814749505666,0.3849294620382451,0.7015756730078989,1.1784336592672637,-0.09336105919832874,0.5474000574604445,-0.46410175377114005
7.214806079864502,-0.22988920628643542,0.33830922290705545,2.282526172717342,-0.0661523633446793,0.9666546988373179,0.38082868677457105,0.6533386095032852,1.1512979129568501,-0.10562830001192128,0.5306758226860908,-0.8362117387176848
7.234819173812866,-0.23108471337571845,0.3578707573193179,2.2901208232962844,-0.05355326158284439,0.9894076197802799,0.37859683283527895,0.6068634575216343,1.123961239581148,-0.11748986149751936,0.5297294191469386,-0.04732017695761037
7.254805564880371,-0.23153993060881728,0.3781920391647137,2.2976283319256443,-0.02871722098448519,1.0193530966817506,0.37505602502299296,0.6392705609198995,1.1112069222931884,-0.14325867159231032,0.5122135518814619,-0.8757933632738357
7.274864435195923,-0.2319843329281997,0.39880044835925493,2.3050991284386426,-0.015619811329907213,1.0414423934810904,0.37194076975130447,0.6702307471732627,1.097578404258113,-0.16811580902457213,0.5112104479832875,-0.05015519490871867
7.294901132583618,-0.23182140438467622,0.4094264109566931,2.3088008342114494,-0.0008272129128830061,1.0568787612354131,0.36982316446615354,0.6859454639277578,1.1098661803900836,-0.19091249221189402,0.5020575189448189,-0.45764645192343245
7.314788818359375,-0.23137443749737763,0.44173638268729076,2.319832633167709,0.02393695227809429,1.0930273510932116,0.36458488619233004,0.6461719455730245,1.1123088063758642,-0.21218694647071734,0.48461880202960606,-0.8719358457606408
7.334781169891357,-0.23076904650502283,0.4638194792658697,2.327080515226065,0.03647416937419207,1.1152854565967432,0.3601350683904008,0.6077783984602617,1.1132541459327314,-0.2326624827283994,0.48303756772261774,-0.07906171534941553
7.354762554168701,-0.2296961819801573,0.48640865679523265,2.3342717526145558,0.054012899194840064,1.1387469581877625,0.3562179385400988,0.5689570002850607,1.09613054277356,-0.2512273757457875,0.4669760899202098,-0.8030738901203982
7.374808073043823,-0.22850465035886933,0.5094016373945521,2.3413446648125853,0.06501553899270723,1.160491157142473,0.35101383162356425,0.5315395304978064,1.0781474276525653,-0.2690624160022379,0.4642599904672906,-0.1358049726459587
7.394838809967041,-0.22763079808668288,0.521068863324559,2.3448638074679047,0.07588685905352331,1.1713800252689206,0.34879876781379204,0.517262686726492,1.0638188251051397,-0.2852570266780294,0.45700165427737804,-0.3629168094956281
7.414750576019287,-0.22488899726671446,0.5567104145772089,2.3552263484328755,0.0977093066569934,1.2037036698951713,0.3408638499544346,0.48285660553797416,1.039247081486585,-0.3001013896586316,0.43737741881170056,-0.9812117732838743
7.4348509311676025,-0.22284047549360853,0.5809906755768092,2.3619826472397967,0.10703204796707776,1.2242389493327035,0.33471865987228755,0.449609574358724,1.0142030407778921,-0.314312780791237,0.4372466586836321,-0.006538006403422614
7.454793453216553,-0.22154388796346705,0.5933061258657547,2.365328463130816,0.11702447499379226,1.2348369161740549,0.3319500871528604,0.41930738329979617,0.9920957057403071,-0.3146130577644603,0.42789438573455474,-0.46761364745386835
7.474851369857788,-0.2191214959693772,0.6181997845859649,2.371904528622553,0.12511778765734963,1.2544536082791669,0.325655885493148,0.3902261028911089,0.969491616165054,-0.3147860467188966,0.41945846112861407,-0.4217962302970335
7.494850158691406,-0.21624224580154142,0.6435530027475184,2.3783692449743525,0.140185720067686,1.2753933040477372,0.31965451698681524,0.38013797012588696,0.9442363100477064,-0.31470014617112096,0.4082774312951054,-0.559051491675433
7.514806509017944,-0.21202948188785778,0.6796742652938255,2.387192962300681,0.1546807420219697,1.3028007180720154,0.31074095794324436,0.36337870350362644,0.9197402491860173,-0.31433658682677423,0.3933842271895034,-0.744660205280101
7.534751892089844,-0.20886427185770076,0.7059125759527167,2.393344943842022,0.16178684126664675,1.320947453073656,0.3044587714613271,0.34735262689818613,0.8948719786822,-0.3138640331806243,0.38875444825010197,-0.23148894697007094
7.554755687713623,-0.2053968945147799,0.7325611807102548,2.3993586011068526,0.17217703159243952,1.3398360427050187,0.2978544479406992,0.28812855397898346,0.8626125674455329,-0.3131173446825093,0.3748650037628831,-0.6944722243609425
7.574977159500122,-0.2000014921062011,0.7731789248363665,2.408143276786515,0.18303743588566695,1.3663299523662178,0.2881778623761735,0.20192163050664652,0.817022118669281,-0.3120779923880471,0.3602582398370511,-0.7303381962916022
7.594855070114136,-0.19630594040867336,0.800665910305175,2.4138444922044147,0.1862414108367328,1.3822180500922605,0.28194744183323617,0.11902404645073597,0.7718587802020521,-0.3109492905896344,0.3554564248242955,-0.24009075063777807
7.615419626235962,-0.1943028681691681,0.81456606623793,2.4166352162431233,0.19072025250989802,1.3907046296550292,0.27846572035091965,0.04290907496130209,0.7269580014889601,-0.3096797870088434,0.3503196043843011,-0.2568410219997208
7.634881019592285,-0.19048480299605955,0.8425225803825088,2.4221426834437088,0.19084270672597833,1.404798670642372,0.27228550524715056,-0.030158976096217153,0.6825237295889673,-0.3083281478828842,0.33801894303237656,-0.6150330675962268
7.654771089553833,-0.18628812802818476,0.870903386399891,2.4275008036545973,0.20004611255029278,1.4220540613909327,0.265470073891335,-0.025738078174532567,0.6604256275474398,-0.30672026077259934,0.32959637380151596,-0.42112846154302996
7.674984931945801,-0.1822920480280652,0.8994750634798563,2.4327489718605304,0.1995773311003178,1.435038918897797,0.25935234493264936,-0.021105055066500164,0.638007449709033,-0.30504081243297343,0.3196768461780821,-0.4959763811716922
7.694872617721558,-0.18008074579056174,0.9139541029289792,2.4353109102994095,0.2053535602387597,1.4439173885326495,0.25586298845751504,-0.014108174825437098,0.6162617024372227,-0.30324603646813114,0.31828344627903826,-0.06966999495219284
7.714735984802246,-0.17384364293524018,0.9576248163181039,2.442838997456242,0.20701905895300807,1.4642503671147382,0.24647273014811139,-0.01749969039196342,0.5868070220415735,-0.30119129977912706,0.2929845776492366,-1.2649434314900843
7.734806537628174,-0.16970696735097224,0.9870252208625591,2.4477083536416444,0.2066385546456286,1.4756918698442656,0.24046992767278305,-0.02048323716213124,0.5573418447494867,-0.2990795337603975,0.29685846020733964,0.19369412790515295
7.754748344421387,-0.16561102348105977,1.0167127984587,2.452443042365991,0.20500070689366803,1.4879911117385183,0.23411749766401577,-0.04181902644510516,0.5134572898847546,-0.2967672438843324,0.2758795022987641,-1.0489478954287756
7.7748425006866455,-0.1615207483296597,1.0465724144954953,2.4570661954419153,0.2039588304710034,1.4978260741052454,0.22820567835266556,-0.06221255568782736,0.4701318891621686,-0.29440673313989046,0.2760797895959941,0.010014364861499203
7.7947657108306885,-0.15953427787031987,1.0616172694371024,2.459324913119032,0.2017979576079406,1.5033538157568431,0.22503410385542352,-0.07801950347199818,0.4210540017036783,-0.29198329013083396,0.2671386957374535,-0.44705469292702915
7.814740419387817,-0.15353241402140444,1.1070003519130864,2.465937348339332,0.19886385281183827,1.5182954827776385,0.21610038949352803,-0.09425028369289329,0.3756766217081069,-0.28933233795090274,0.24780120977989295,-0.9668742978780287
7.834880113601685,-0.14957503485807672,1.137438406619331,2.470201668201181,0.19682223820752337,1.5253610532682904,0.2103405534311543,-0.1097980133970174,0.3309961648887115,-0.2866453302518016,0.24668476853782906,-0.055822062103194625
7.8549041748046875,-0.1456821597545436,1.1681574010468867,2.474344377222144,0.19391802505292727,1.5353301046857444,0.20445856776565696,-0.12748799466013308,0.2914530713884376,-0.28380483379780785,0.22935402028487584,-0.866537412647661
7.874872922897339,-0.14183043720190647,1.1989196839986176,2.4783769784216463,0.1911978580599185,1.5407681420536699,0.19881111645064706,-0.14439979782873133,0.25243848895709853,-0.280935566838322,0.22657658500441746,-0.13887176402291868
7.894829273223877,-0.13995351457822736,1.2144346368906227,2.48034844649972,0.1888192924853387,1.5457036796714545,0.19595530937411546,-0.1548226338806621,0.22555295899178152,-0.278046661021736,0.2199926781967978,-0.3291953403809833
7.914750337600708,-0.13439629507914755,1.2610005356099887,2.486100539935833,0.18297402762950124,1.5548109584085121,0.18760410565842847,-0.16380168193561115,0.19656533097950013,-0.27496391013325694,0.19828727329136564,-1.0852702452716079
7.934847831726074,-0.1307701460301752,1.2921341449120973,2.4897978357301596,0.17961277291060293,1.5584539851504444,0.18213581240506377,-0.17223310650018378,0.16776934824362777,-0.2718623318062217,0.19991096316343526,0.08118449360348112
7.954775333404541,-0.1290412342670473,1.307777203887252,2.4916055922887677,0.17609319439921872,1.5612122921741798,0.1794376388465155,-0.18370280147681328,0.13482070701263965,-0.2687612921589269,0.1892430956219302,-0.533393377075253
7.975075006484985,-0.12555684380058432,1.339026236999032,2.495140800362988,0.17230973517234344,1.5635825028451207,0.1740935597368002,-0.19453805944460995,0.10226582749000475,-0.2656439540949479,0.1806500735048222,-0.4296511058553998
7.99498724937439,-0.12223346752113293,1.3703964801404107,2.498568603076729,0.16628585136896243,1.5673208138976513,0.16879433451346695,-0.20182181555899645,0.07338375025292893,-0.26241635665261326,0.17046027651886142,-0.5094898492980393
8.014791250228882,-0.11738501327263827,1.4174936740989386,2.503517053616244,0.15877846809839846,1.5705361681128485,0.16103335653368878,-0.20688862818047818,0.045508345289583176,-0.25902426376473076,0.15241994064408892,-0.9020167937386248
8.034767866134644,-0.11425113698748796,1.448911654023806,2.5066861422596327,0.1545937639822792,1.571169789695653,0.15588682962173928,-0.21150765979276323,0.0178979326625579,-0.25562772681411366,0.15150664536079583,-0.04566476416465459
8.054791927337646,-0.11128346291310584,1.480378909059031,2.509758126432683,0.1483426208529362,1.572442915693538,0.15092397659741597,-0.20565623163486355,0.010586045188687852,-0.2521495391330281,0.1339390772516995,-0.878378405454816
8.074870586395264,-0.10835734005431294,1.5118293717715365,2.512726407917942,0.14428994062621722,1.5725772966252634,0.14591576449003907,-0.19957362430054046,0.0027685135817603884,-0.2486717776249864,0.13296985687600182,-0.0484610187848844
8.094736099243164,-0.1042728921366379,1.5589931967135215,2.5169987321829486,0.13478240350133602,1.5719560869036124,0.13864302835607,-0.1944695491416806,-0.007613004233724577,-0.24501086010677217,0.1063897679417889,-1.3290044467106465
8.114760875701904,-0.10295569151160325,1.5746990385185382,2.518373587822709,0.13197407250006563,1.5712285224285503,0.13624662283344222,-0.1986449558897095,-0.02217421615300351,-0.2414331349190898,0.12483176728724299,0.9220999672727048
8.134978771209717,-0.10035619204183498,1.606118192752622,2.521050471816759,0.12796364449104686,1.5706376577592436,0.13145367879050798,-0.2023140736281435,-0.036947095746565455,-0.23786247478788994,0.09341584075134524,-1.5707963267948966
8.154769897460938,-0.09917385273373718,1.6217668851156428,2.522345807272609,0.1234413858390166,1.5684079244033888,0.12886476054712617,-0.20597259573486626,-0.06530297563088475,-0.2343174655188977,0.11108464163037057,0.8834400439512669
8.17479681968689,-0.09674644399428935,1.6531201111096852,2.524876474898243,0.11928858672065212,1.566821387288918,0.12421379016000773,-0.20924310237225877,-0.09328932467289865,-0.2307810275461457,0.07966871509447282,-1.5707963267948966
8.194827795028687,-0.09450556578469671,1.6843823475153814,2.5272841806178383,0.11260741404719007,1.5634431401154543,0.11887201007117243,-0.20798502694929935,-0.12120348301471245,-0.2271310750292329,0.08939723961308577,0.4864262259306473
8.214888095855713,-0.09024755568969973,1.74681189762886,2.531827766810372,0.10230182326056063,1.5581031998662505,0.10914651900155967,-0.2084729897038922,-0.14647679181054374,-0.22320164873008783,0.05798131307718801,-1.5707963267948966
8.234813928604126,-0.08824323227694181,1.7779429973090566,2.53396631760865,0.09812982791461893,1.5549235848917138,0.10472157794003562,-0.208680091189489,-0.17143179906471925,-0.21929651661142074,0.05906980512574744,0.054424602427971536
8.25475549697876,-0.08827128941787235,1.7779294236080458,2.533959215647783,0.097220825385201,1.553968476208284,0.10452354918920283,-0.20533449315302044,-0.2188027079428096,-0.21555124116824564,0.05792971090996479,-0.057004710789132496
8.274847269058228,-0.08636771559893709,1.8089619357363933,2.536006824995809,0.09314778633718608,1.5491289080806638,0.10024979829511571,-0.20196555040237532,-0.2649514855361403,-0.21182743905719637,0.04127955941029704,-0.8325075749833877
8.294909954071045,-0.08462367653490918,1.8399442432369486,2.537953178118628,0.08716227210468065,1.5449444728442614,0.09569956302037273,-0.19768341335631223,-0.3066231747467413,-0.2080411854463612,0.042430401976197185,0.05754212829500727
8.314717054367065,-0.08215244245186404,1.8862214823838268,2.540731310798108,0.07971665131171497,1.5373296003466579,0.08952928791264568,-0.1921513934916614,-0.34810354453580056,-0.20415093713395566,0.014769834239532376,-1.3830283868332405
8.334760904312134,-0.08059617344397246,1.916895744034735,2.5424813242147395,0.07592852034928876,1.5299620053820504,0.08548492095764591,-0.18667012461149513,-0.38847155190505034,-0.20029077557000674,0.029416151967903925,0.7323158864185775
8.354754209518433,-0.07919398868972319,1.9475232471170183,2.544154542314352,0.07027609398217861,1.5245844150075465,0.08156679337244198,-0.18106600989451718,-0.42596821969928467,-0.19641046114743838,-0.0019997745679938284,-1.5707963267948966
8.375040054321289,-0.07782430908242577,1.9779272935932777,2.5457468531443888,0.06671036880423357,1.51569867838332,0.07767711516131384,-0.175515385383081,-0.46243467750345335,-0.19256280203330328,0.01503700100674532,0.8518387787369575
8.395187854766846,-0.07721353526606467,1.9931380680170492,2.5465091540281937,0.06365790720916069,1.5129414598440762,0.07563501306086912,-0.16985359858997748,-0.4972663616688821,-0.188785510034884,-0.013794115437544274,-1.4415558222144798
8.414731979370117,-0.0754268171179145,2.038395023084524,2.548683979482043,0.05728001372660115,1.5003613661797093,0.06972729415238663,-0.1653597614286802,-0.5296250164940182,-0.18490113323709112,-0.004425146757229381,0.46844843401574465
8.43485426902771,-0.07431398999464728,2.0682942144451255,2.550041802239121,0.05401762550247908,1.4894529885581826,0.06606780565940067,-0.16088169120030887,-0.561059583666212,-0.18105390083492762,-0.03241799047015492,-1.399642185646277
8.454771518707275,-0.07332572067613159,2.0980753456269503,2.5513210435640348,0.04936204567880114,1.4805351049736648,0.0623508389699059,-0.15622721441461923,-0.5929632389242435,-0.1771904676036792,-0.014349341082195988,0.9034324693979467
8.474810600280762,-0.07236941568114566,2.127565376156495,2.552532877838586,0.0462839170917342,1.4683647966941658,0.05884533507652682,-0.15158823427377383,-0.6239088042875702,-0.17336648840739313,-0.04576526761809374,-1.5707963267948966
8.494837522506714,-0.07194723445498435,2.142275954882434,2.5531092299699125,0.043875650299469646,1.4635044931157557,0.057043777755365406,-0.14703875947606565,-0.652504972512451,-0.16962539305756402,-0.02169151514000678,1.2036876239043481
8.514730453491211,-0.07072764197776718,2.185955961130206,2.5547340618275323,0.0386546439944413,1.4456319560083262,0.05169754885206634,-0.14104765808880335,-0.679095201535976,-0.16579328476937275,-0.05310744167590453,-1.5707963267948966
8.534911394119263,-0.0699823618243552,2.2147310492194627,2.5557351074742587,0.035893168350609655,1.43179092736474,0.04841964644040197,-0.13510855307740832,-0.7048730189433319,-0.16200409608645663,-0.05180753225058288,0.06499547126608274
8.554738521575928,-0.0693293026737931,2.2432976761581775,2.556651717412364,0.032298887186799935,1.4192636377169057,0.044755097382423226,-0.12967231569089843,-0.726597678624495,-0.1581916929446391,-0.06884206751624333,-0.8517267632830228
8.575104475021362,-0.06870889862206288,2.2715362143273152,2.557515432914294,0.029759529134147186,1.4045199776208284,0.04162900975811901,-0.12426897121042452,-0.7476582758190748,-0.1544246053358908,-0.06182803848950158,0.35070145133708763
8.59490966796875,-0.06843962783919368,2.285575043705702,2.557925555835254,0.027957119117946374,1.3977344117557262,0.04017218426890223,-0.11689187325691741,-0.7644388523363446,-0.15075828394781846,-0.07849859062469378,-0.8335276067596098
8.615051507949829,-0.06790337739660414,2.3133757513867392,2.5586990900977877,0.025692157747314863,1.3822821464814403,0.03719331731361279,-0.10962207733572224,-0.7807019099038554,-0.14713568199405308,-0.07132132554878146,0.358863253795616
8.634905338287354,-0.06744810497361012,2.340901643716722,2.5594222431352183,0.022642397658241088,1.3673965069255631,0.034518295085177925,-0.10250182440502074,-0.7930746737669785,-0.14353973929206587,-0.09533974896595776,-1.2009211708588152
8.65478801727295,-0.06702916439706895,2.368093010522979,2.5600894139774604,0.020201453408992705,1.3514898575614978,0.031856667798563436,-0.09536233979223592,-0.8059598057680858,-0.13998431595901178,-0.07746062875946524,0.8939560103246258
8.674789428710938,-0.06664373711796122,2.3949607778501667,2.5606987852688037,0.018364720727204707,1.3352453321518072,0.029092164204441284,-0.08832845799167689,-0.8184227899831121,-0.13647345169491204,-0.108876555295363,-1.5707963267948966
8.694880485534668,-0.06632970841926537,2.4214884153100207,2.561259512466569,0.015767560436163005,1.3183769346828444,0.026517053002394056,-0.08171741912203191,-0.8320016710534823,-0.1329862582528689,-0.08668290562159076,1.109682483688612
8.714815616607666,-0.06591444124668246,2.460646029195586,2.561988423638862,0.012779705678058095,1.2927397155480973,0.022359176679163713,-0.0751476785003118,-0.8452075821342059,-0.12944136267559625,-0.11809883215748851,-1.5707963267948966
8.734854698181152,-0.06567344314814284,2.4863309251819645,2.562409952798419,0.011341706154317528,1.2757074331555458,0.019805393866993398,-0.06866707375630765,-0.8579426568428533,-0.1259449808625549,-0.10727418159489988,0.5412325281294317
8.75476884841919,-0.06548398349981674,2.511632015660792,2.5627652714586326,0.009435680469434706,1.2574199576027336,0.016930273418587057,-0.06281703026935957,-0.8684535346078116,-0.12244885037574292,-0.13513332652173426,-1.3929572463417195
8.77483057975769,-0.0653074466268771,2.5366060431426583,2.5630796177361153,0.008237284938630515,1.2399490695467787,0.01451584182763012,-0.057033589243490154,-0.8785699263550176,-0.11900259589349074,-0.10855635044703016,1.3288488037352053
8.794874906539917,-0.06523998418806526,2.548931653999951,2.5632146549957757,0.0074036609628342085,1.2302340274511037,0.013219947725833295,-0.04867249005590476,-0.8854380683488381,-0.11564821426798948,-0.1399722769829279,-1.5707963267948966
8.814737319946289,-0.06505379075984975,2.585411498903386,2.563543569233405,0.005609025641579677,1.2027725498734703,0.009309628905420315,-0.04096255596130388,-0.8927389966803972,-0.11223211134473138,-0.12622878615662936,0.6871745413149277
8.834810018539429,-0.0649492961124489,2.6092879310743076,2.563707540545034,0.004865649523911639,1.1848473756931845,0.007098717131862162,-0.03339940548884649,-0.8997265210484914,-0.10886764333053137,-0.15754071692295168,-1.5655965383161163
8.85475754737854,-0.06487683952297983,2.632746782498359,2.563811817398405,0.003832466377798622,1.1653325892177802,0.00457923328873962,-0.022188460388518183,-0.9057071187458567,-0.10551464977488074,-0.12612479038705393,1.5707963267948966
8.87490725517273,-0.06480389481206501,2.655871909324112,2.563882520039769,0.003498421219404994,1.1471611675757558,0.0025020325033504364,-0.011263457710024231,-0.9113849216954848,-0.10221414702196058,-0.15754071692295168,-1.5707963267948966
8.894928693771362,-0.06478400247522964,2.6672575168016786,2.563885875704976,0.0030597541188026635,1.1368478315982644,0.001000171446886663,-0.0006253101022481244,-0.9161801654608007,-0.0989841878551046,-0.14099566584783885,0.8272525537556419
8.91471529006958,-0.06471759246998496,2.7009133990589156,2.563849051410303,0.00237552041001885,1.1082424526106271,-0.002537294148846894,0.0055154197373425105,-0.9221283127245433,-0.09569793128298981,-0.1724115923837366,-1.5707963267948966
8.934758186340332,-0.06466857619112346,2.722893443310208,2.563779382291937,0.0025461375243370724,1.0897433034361805,-0.004418845506417768,0.011524457014542697,-0.9277291182355263,-0.09246627017773999,-0.1457090169438504,1.3351287719943095
8.954756259918213,-0.06464430876168277,2.7444457360643537,2.563655022233111,0.0021410013243225484,1.069751196797635,-0.006702222933079234,0.019110512319702993,-0.9314464138053538,-0.0892504363492716,-0.17712494347974816,-1.5707963267948966
8.974752187728882,-0.06458379601041689,2.776085396743351,2.563399420626236,0.0024149541100365953,1.040796665136771,-0.009760069482827998,0.023979452253639573,-0.9372503672620328,-0.08600090116678477,-0.16408561291384816,0.6519665282950005
8.994899034500122,-0.0645303814891971,2.796713512460648,2.563187232805339,0.002942391817665609,1.0219968520680143,-0.011448073058763735,0.02874761200957539,-0.9426668170348805,-0.08280902915421337,-0.1929741770149498,-1.4444282050550816
9.014780044555664,-0.06450383980403888,2.806852851770862,2.563065444785356,0.003163062441095553,1.0115667844783227,-0.012322335796754229,0.03358400602109169,-0.9485926574017786,-0.07972271498319272,-0.16155825047905203,1.5707963267948966
9.034877300262451,-0.06443354458696576,2.8268940943959318,2.562803256515451,0.0038822304945993775,0.9925390907091658,-0.013886387627613248,0.038315393605948725,-0.9541089511082276,-0.07669163787987891,-0.1929741770149498,-1.5707963267948966
9.054880380630493,-0.06435075023070425,2.8465214997373,2.562490444933293,0.004779911597674581,0.973011524500574,-0.015943010233006837,0.06013559322769714,-0.91362473149271,-0.07367712285586264,-0.17263658177953456,1.0168797617707614
9.074775218963623,-0.06424170160136855,2.8658016346651274,2.5621570474862785,0.006195595100232874,0.9551322855538652,-0.017386871572558023,0.08132883706228132,-0.8745292812809915,-0.07071824656812913,-0.2040525083154323,-1.5707963267948966
9.094957113265991,-0.06418631447479399,2.8752630873805844,2.5619691189228675,0.006693272849705351,0.9449892062221479,-0.018351963225019453,0.08283815998308867,-0.8737063359270287,-0.0678462801750889,-0.17263658177953456,1.5707963267948966
9.114697694778442,-0.06398132962157971,2.9031159266620867,2.5613742931578845,0.008250184232299961,0.9158711231673972,-0.020771063744610022,0.08232240454560052,-0.8686388640607128,-0.06495224011498386,-0.2040525083154323,-1.5707963267948966
9.13478398323059,-0.06379989301641575,2.9212599570149007,2.5609460715812418,0.009891945001882882,0.8985486588870203,-0.022041632884869867,0.08186300844339976,-0.8636148389227218,-0.06211392186379067,-0.18910363498882576,0.7474436663303274
9.154777765274048,-0.06360958806502831,2.9389220204037088,2.560463902637617,0.011013017650606978,0.8780066111519994,-0.023936278770195704,0.08156576480289322,-0.8566426599328063,-0.05928970682811742,-0.21937304089982224,-1.5134702955498236
9.174724340438843,-0.06337303216069021,2.9563112837582244,2.5599735045948484,0.012641729363414293,0.8609426217805658,-0.025094298366738814,0.08131272993081108,-0.8497734114897522,-0.05652155680995273,-0.18795711436392448,1.5707963267948966
9.194894552230835,-0.06323339836530836,2.9648159650576233,2.559714475253501,0.013944766260209527,0.8510572957098458,-0.025809355429309306,0.10538067517281718,-0.8082363998711803,-0.05384662114692825,-0.21937304089982224,-1.5707963267948966
9.214814901351929,-0.06276062470364263,2.9899152828381754,2.558900701245043,0.017508900508746133,0.8252112167063378,-0.027844572336814588,0.13562722368212066,-0.7571523154208769,-0.051156622005731754,-0.1947546101527431,1.2309215373539573
9.234882831573486,-0.0623813514956881,3.0062713866156687,2.558333755027538,0.020516134737146297,0.8105630719605673,-0.028841267832309694,0.16494173366706474,-0.7079786591971609,-0.04852213939491982,-0.22617053668864084,-1.5707963267948966
9.25478482246399,-0.06218847652528088,3.014238400232608,2.5580319161700418,0.021523849037262493,0.8005068336877383,-0.029610882734165168,0.16473250543671214,-0.7034827287202007,-0.04597040224128721,-0.1947546101527431,1.5707963267948966
9.275762796401978,-0.061725068060357845,3.030108135861134,2.55743067187295,0.02481622899001443,0.7864814338667285,-0.030505219481660788,0.16450197264140293,-0.69907131291165,-0.043472146277474054,-0.22617053668864084,-1.5707963267948966
9.29490327835083,-0.06128052716776104,3.045466396249922,2.5567880474708318,0.02605823593005201,0.7668789494328244,-0.03198003169881128,0.1646809845763754,-0.6946554725872391,-0.040994340900373356,-0.20695636726467947,0.9607084711980685
9.314785718917847,-0.060452562810185066,3.0680600853406896,2.5557935564898973,0.0303078112240998,0.7436739746138111,-0.03363435468089571,0.1701351069136685,-0.6469484027790257,-0.03850950544563009,-0.23837229380057723,-1.5707963267948966
9.334813594818115,-0.05981202240991172,3.0828072662274257,2.555113330403729,0.033763979539823144,0.7311971877041288,-0.034380154060232135,0.17546034872051755,-0.6010259555298775,-0.036079534274661366,-0.20695636726467947,1.5707963267948966
9.354812383651733,-0.059468278897127434,3.0900100841314644,2.5547635488773426,0.03545863535415697,0.7229983056498216,-0.03486370884944369,0.17247499084650292,-0.5940695481514795,-0.03374039601967071,-0.23837229380057723,-1.5707963267948966
9.374743938446045,-0.057979220418029796,3.1169144278039864,2.553396401357163,0.04256028712253104,0.6973398860660913,-0.03657294223622953,0.18015548364629508,-0.5461716038610792,-0.03137166667757771,-0.21542108936766358,1.1475602216456826
9.394845247268677,-0.057091480116864976,3.1307550905266592,2.5526588233618517,0.04623877397351218,0.6868797981990712,-0.0371771434599918,0.18766480372701524,-0.5001476279012789,-0.029057507597771294,-0.24683701590356133,-1.5707963267948966
9.414774894714355,-0.0566043761986742,3.1375123464519175,2.552282010712928,0.048682866168018965,0.679730652916876,-0.03754835145751401,0.2052321495492648,-0.45942618563978843,-0.02683574349931026,-0.21542108936766358,1.5707963267948966
9.43480372428894,-0.0555885260260987,3.151017704337401,2.551525822048243,0.05295906219722606,0.6709352367980115,-0.038063282529855705,0.22230556923493228,-0.420395490224337,-0.0246659908754905,-0.24683701590356133,-1.5707963267948966
9.454781293869019,-0.05505465868238865,3.1575727298767147,2.551135328723207,0.05498211630655256,0.663278266942947,-0.03855585165799733,0.22518267236597317,-0.3808422947011141,-0.02257295086002088,-0.21730803298179913,1.4764491460881102
9.47478699684143,-0.05390978940204628,3.1707646793684434,2.550359834136266,0.05951430955600189,0.656042917983259,-0.03898679665380489,0.22803201943421153,-0.3429712221285778,-0.020529828133452013,-0.24872395951769688,-1.5707963267948966
9.494837999343872,-0.05277593440190494,3.1829367824690866,2.5495984054004563,0.06296954706695826,0.6439727548347953,-0.03977895971596102,0.2338866800047639,-0.3122165736320229,-0.01852615836954082,-0.22374031531018357,1.2491822103756656
9.5147225856781,-0.05079420772292555,3.201976501455287,2.5483877283617113,0.06963890813692787,0.630911829676381,-0.04055711684935624,0.23186268235184873,-0.2876695693587531,-0.01653921234957978,-0.2551562418460813,-1.5707963267948966
9.534852743148804,-0.049355185504711054,3.2145387830207746,2.547573408165956,0.07425699628680688,0.6253943182019364,-0.04086844463724291,0.22996743120013993,-0.2642719284579775,-0.014601777515108754,-0.2256879986613356,1.4734121592372862
9.554795742034912,-0.047810938159954144,3.226849734718417,2.5467495105238145,0.07925780518121389,0.6167795166499197,-0.0412522601777136,0.229444101015896,-0.2467095154712412,-0.012723290895774354,-0.25710392519723335,-1.5707963267948966
9.57494306564331,-0.04617992325986439,3.2391371069508814,2.545922043494247,0.08384226397075147,0.6120131186249982,-0.04148834095347819,0.2290178168241415,-0.23008570355025643,-0.010892735227027012,-0.23184916267167122,1.2627381262781068
9.594832181930542,-0.04530584671507796,3.2451870446386764,2.545503755332216,0.0867778038301485,0.6082251125393426,-0.041662359428670186,0.22209903652022414,-0.21671749229569676,-0.009141987207780996,-0.26326508920756897,-1.5707963267948966
9.614766597747803,-0.042571908008422456,3.263297256862915,2.5442506204382607,0.09426369337683217,0.6008387202752001,-0.0418897106208923,0.21397345465135134,-0.19645610042737838,-0.007428224167042573,-0.23196770145379064,1.5648693876889164
9.63491177558899,-0.04064436275354026,3.2752760385910853,2.5434114525624416,0.09846497137660093,0.5971035156249123,-0.04202151550000616,0.20621515309171007,-0.1772369514392314,-0.005759778193106291,-0.2633836279896884,-1.5707963267948966
9.654790878295898,-0.03961328368258357,3.281222774442467,2.5429901108537014,0.10148810231189961,0.5948650854225249,-0.04209917910546792,0.1963830137190213,-0.18559096861141042,-0.004168924010700737,-0.2387042115546798,1.2339708217504297
9.67508602142334,-0.03754488406021661,3.293082402164238,2.5421473973907944,0.10532018092094651,0.5910699165264115,-0.04216700766306757,0.1868792467262696,-0.19392202286239812,-0.0026210600408622634,-0.27012013809057756,-1.5707963267948966
9.694790124893188,-0.03532132643010188,3.3048748011194093,2.541302107027099,0.11102414146366343,0.5876071679537168,-0.042209936433399854,0.1780867808086145,-0.1981431392987867,-0.0011330488861856461,-0.2387042115546798,1.5707963267948966
9.714754343032837,-0.03184831445470278,3.32247316490913,2.54003733726393,0.11810949082600303,0.5833799014145543,-0.04218243199776771,0.1737851929051929,-0.2038318504623863,0.0003159416750604918,-0.27012013809057756,-1.5707963267948966
9.734806299209595,-0.029451646765173284,3.334099613460916,2.539193846367801,0.12154344571658626,0.5792457351215377,-0.042161963707693366,0.16963543688031416,-0.20959740740928826,0.001724120984041262,-0.25045714120714324,0.9831498441717157
9.754802227020264,-0.0281702411484657,3.3399694504440305,2.5387706245323276,0.12483410046094545,0.5796946980654468,-0.04217229169282815,0.1660977804961148,-0.2102776746500913,0.003063891460983923,-0.2785109113582185,-1.402688507553762
9.77474594116211,-0.025640568741104416,3.3515212298613246,2.537927878856678,0.1281217929620146,0.5754800676758015,-0.04209793898947717,0.1626935561123261,-0.21123039556684264,0.004364963070505102,-0.24709498482232073,1.5707963267948966
9.794795036315918,-0.022968724856078624,3.3631481919520025,2.5370985221129225,0.13325964998523424,0.5753291793408145,-0.04169742696350134,0.16323037394243933,-0.20089150653853655,0.005590338402788535,-0.2785109113582185,-1.5707963267948966
9.81477665901184,-0.01886067758228188,3.380410261390833,2.5358518183129295,0.1392033661616586,0.57195201608195,-0.04149064035607108,0.16606233473203494,-0.19520532199175597,0.0067784806490952055,-0.2583754641345326,1.0067723611842938
9.834771633148193,-0.016043207617557703,3.3918106133507244,2.5350234386146933,0.14255316150210323,0.5681003789113624,-0.041343488597092026,0.16892167454811827,-0.1900454955650185,0.00793074820812635,-0.2888432801661134,-1.5233908015790387
9.854749202728271,-0.014586197069100321,3.3975575727675746,2.534615684411821,0.14482623756989169,0.5682760641925793,-0.04107650937667936,0.16269921162927148,-0.19697595482727767,0.009010108959290497,-0.2574273536302156,1.5707963267948966
9.875767707824707,-0.011657535589440804,3.4088832329747087,2.5337960265231345,0.14801994859873166,0.5642665991530083,-0.04088579347649908,0.156710622964186,-0.20398312297409446,0.010055919665569207,-0.2888432801661134,-1.5707963267948966
9.894785165786743,-0.00864127373348489,3.4202357825077776,2.532986788231359,0.1517253525039263,0.5628437001232639,-0.04056020043252427,0.14956443269943018,-0.21559879680005317,0.011043767431211982,-0.26183365439976036,1.350481288317651
9.914716243743896,-0.003999778982674579,3.43711372185637,2.531774057010023,0.15680403203003726,0.5589333439895575,-0.04023420007663513,0.14242659461236218,-0.2198488318155974,0.011998149139057385,-0.2932495809356581,-1.5707963267948966
9.93480658531189,-0.0008356699353158503,3.448248128798565,2.530971834698711,0.15958434045450146,0.5544927290323505,-0.03998495395952543,0.13566683383541633,-0.22423514468383293,0.012921283397094965,-0.2683832752252435,1.2433152855207297
9.954850673675537,0.000629600051346587,3.453320586652038,2.5306135053992898,0.1614026241512895,0.5551041462687281,-0.039832340328581184,0.1256388214132176,-0.22466219003782767,0.013789377551100773,-0.2997992017611413,-1.5707963267948966
9.974873542785645,0.0038821357777445425,3.4643776954478134,2.529819672866814,0.16381911974838392,0.5506044303335483,-0.03954811741026224,0.11609009442042344,-0.22535301176393668,0.014628035626110687,-0.2683832752252435,1.5707963267948966
9.994832038879395,0.007233176555285922,3.475479646649269,2.5290365153198424,0.16735523930277943,0.5493640138559122,-0.03913593249664751,0.10572141568054291,-0.2295918185594131,0.015413394429421906,-0.2997992017611413,-1.5707963267948966
10.014727354049683,0.01233753916339768,3.4919263523989432,2.5278671232363403,0.17148864139416625,0.5443886008513005,-0.03874305731711667,0.09766996640398458,-0.23384144286306252,0.01617023612265411,-0.2793373237243051,1.0230939018418095
10.034825086593628,0.015786325406331556,3.5027670645882143,2.5270955452261874,0.1733642218703497,0.5396679055346033,-0.03841231189199174,0.08994159048437728,-0.2382551476477358,0.016899783151494534,-0.30915972907062317,-1.491120267315904
10.054767847061157,0.01755584100607425,3.5082092632990123,2.526714608489018,0.17511744264214393,0.5388975076901109,-0.03814140579766,0.08649757218956791,-0.23950061450466947,0.017577845266478653,-0.2777438025347254,1.5707963267948966
10.074735879898071,0.02467322965823212,3.529653863118215,2.525207883740619,0.17960028194766617,0.5312954568920084,-0.037351410892151736,0.0850037335033408,-0.23919635211129642,0.018218636448355096,-0.30915972907062317,-1.5707963267948966
10.095346212387085,0.028282141000528685,3.540231939117885,2.5244645407248933,0.18128617524620924,0.5265122159541856,-0.03698083754856671,0.0836005999912239,-0.2391744115995492,0.01883458082015993,-0.2892944964666131,0.9932616302005037
10.116529703140259,0.03192449556077204,3.5507143360956728,2.5237287307228864,0.1829449015373748,0.5217266289796174,-0.036598191381143855,0.08228680498806519,-0.23943018834916321,0.01942596692218658,-0.3179351445821088,-1.4320324057747857
10.13498568534851,0.03194263649502727,3.550776628945041,2.5237307969242226,0.18331797795489924,0.5232547491035853,-0.03648870400068065,0.07898268241337894,-0.23745480802980282,0.01996296868586464,-0.28651921804621105,1.5707963267948966
10.15481185913086,0.03562692057277868,3.561210935024392,2.5230095370825185,0.18491881567984664,0.5190745190367339,-0.03594308600280162,0.07301739607847565,-0.2347399347051256,0.020460480114058925,-0.3179351445821088,-1.5707963267948966
10.174705505371094,0.041210319725420226,3.576696628187799,2.521940702884469,0.18713477704480544,0.5126389620491568,-0.035334892328935205,0.06567004745597434,-0.22427354625738016,0.02092767298014116,-0.29494520992453266,1.1494967328788075
10.194788217544556,0.04496567943397049,3.5869052186161396,2.5212382206697477,0.18837803223787772,0.5082528485368889,-0.03491184164580288,0.05872148561235495,-0.21444307792597267,0.02137392640357608,-0.3263611364604304,-1.5707963267948966
10.214702129364014,0.04875420247153206,3.5970277225260148,2.520548002575773,0.1898616745105884,0.5039308537588912,-0.03436884514990081,0.0653126551700617,-0.20898962397890344,0.021776828647861877,-0.29494520992453266,1.5707963267948966
10.234906911849976,0.05256493377909283,3.607064880510216,2.5198650069243094,0.19123315188152817,0.4998014774745182,-0.033929441835318874,0.0718213485056707,-0.2040296617227042,0.022160280946904032,-0.3263611364604304,-1.5707963267948966
10.254801511764526,0.05640439528882146,3.6169901714333865,2.5191875222476043,0.19274489892771188,0.49480939729090817,-0.033589585891284225,0.0890915880692015,-0.2209985271823739,0.0225162900806734,-0.3031908712550879,1.1585132602671244
10.274718523025513,0.062198509866757574,3.631725033054468,2.518190032712304,0.19465536229525976,0.48775370073512164,-0.03288890567991182,0.10151850365769452,-0.24515314542754027,0.02284124148123448,-0.3346067977909857,-1.5707963267948966
10.294822454452515,0.066112732610933,3.641429496285775,2.5175368436213814,0.19680722578854287,0.4826141144424162,-0.032428979408040425,0.11361265805164142,-0.26870563209536796,0.02314844648375447,-0.30476333590730054,1.492173094184257
10.314779281616211,0.06803942529152943,3.6462616433808273,2.517215227985689,0.19660712059550312,0.48040146114036514,-0.03216302851426879,0.11684540971690606,-0.2851120615223101,0.02342563383090669,-0.3361792624431983,-1.5707963267948966
10.334807395935059,0.07199515245964822,3.6558115734473366,2.5165766701890853,0.198976382227875,0.47453799055874984,-0.03169188257319835,0.12008120141067206,-0.3011785969190201,0.023686209209123305,-0.30980792546267466,1.3185668490261815
10.354798555374146,0.07393166731338849,3.6606031147625893,2.5162591859432233,0.1984939414971163,0.4731393794801859,-0.03149822399313337,0.11847652574255935,-0.3186786091435425,0.023923812766500185,-0.3412238519985724,-1.5707963267948966
10.374733924865723,0.07792514298869634,3.670001020628664,2.515634021279719,0.200848843807281,0.46659424963903495,-0.031017502680572205,0.11704181412840697,-0.3357659215991266,0.024145719169120637,-0.3106181353980695,1.5302858300251465
10.394718647003174,0.0810952040724687,3.677525360404219,2.515142228901048,0.20119663230859527,0.46382138514930626,-0.03059456710245704,0.11078384890652303,-0.34486994336162125,0.024337852253197276,-0.34203406193396724,-1.5707963267948966
10.4148268699646,0.08716023327479681,3.6913578289583695,2.514233333406428,0.20395100620112763,0.45555277575889,-0.029936178946986233,0.10876419158468019,-0.34055299141863266,0.024507319395232645,-0.3201105074282222,1.0961777252872507
10.434804201126099,0.09126088053579612,3.7004010421741986,2.5136395218850134,0.20610758265478513,0.4487816383901629,-0.02944445516181873,0.10692297451755958,-0.3366251286065093,0.024662732304166546,-0.3498437431318391,-1.4866617851808428
10.454779624938965,0.09331912070583219,3.7049157314228895,2.5133480057217943,0.20694433868254503,0.4467384467284878,-0.029123489584521753,0.10567441035623358,-0.31918492182116304,0.024792117217222857,-0.3184278165959413,1.5707963267948966
10.47484040260315,0.09747906717849916,3.7137877817307423,2.5127705023267093,0.20904668250495562,0.440521768553344,-0.02862646205940435,0.10458654451143827,-0.3026293810403976,0.024908479552337808,-0.3498437431318391,-1.5707963267948966
10.494802951812744,0.10167553631375413,3.722529461886133,2.512206726365763,0.2110280319441387,0.4340994584273894,-0.028071072306427403,0.107698393413455,-0.30026931137355645,0.024994912022738257,-0.3276273783955461,1.110818236814648
10.514789342880249,0.10804793116421307,3.7353764231718887,2.511373996856115,0.2140389626163345,0.4238741760201555,-0.027357530539851207,0.10613292434015388,-0.3051316030632983,0.02505827830404094,-0.3590433049314439,-1.5707963267948966
10.53477954864502,0.11234984163837355,3.7437925515068518,2.5108318615589886,0.21614746540225432,0.41772213673071673,-0.026855825638742486,0.1047470593133085,-0.31008778961832645,0.02511034115225389,-0.3293116693537921,1.4865817788825897
10.55481219291687,0.11450882090560131,3.7479169844253617,2.5105681752977205,0.21689002475265803,0.41334344894564995,-0.026518748554221358,0.093588002956389,-0.33965704211767994,0.02514036171165072,-0.36072759588968983,-1.5707963267948966
10.574789762496948,0.1232681424056526,3.76418263037524,2.5095254526550606,0.22083202920778772,0.3998104718172152,-0.02556440895470543,0.08467761383393599,-0.35956440609759893,0.02514173081235208,-0.3400204086226779,1.0353593633505964
10.594817876815796,0.12770114142939232,3.7721056224168548,2.5090191924314658,0.22243929951584993,0.39242388218872576,-0.025061640904621662,0.07610545139576672,-0.37901952050681165,0.025133483225117867,-0.3673106118006686,-1.3645101588995345
10.61472201347351,0.129947368578333,3.7760378063046844,2.508776134195803,0.22366934477357125,0.38928544180043423,-0.024617269052500487,0.06850811524165616,-0.395932858612828,0.025099236975252424,-0.34039151692863046,1.345954743601907
10.634851932525635,0.1344339712846357,3.7837432226705388,2.508288805949653,0.22496697736320234,0.3812012588728706,-0.0241156982838518,0.06132347730280704,-0.41241370235926067,0.025056422768560054,-0.3718074434645282,-1.5707963267948966
10.654826402664185,0.13671866543692382,3.7875862212940907,2.5080560636628695,0.22644696931145766,0.3784947854096549,-0.023674688421818177,0.05577322473232927,-0.4174360517123235,0.02498957571135625,-0.34333769602053144,1.4234873721998387
10.674715995788574,0.14587448115419302,3.8024658350573053,2.5071326082720136,0.22995800070995467,0.3635520016497839,-0.022600146123426805,0.053813746411894174,-0.41470731128442984,0.024887735056162902,-0.3747536225564292,-1.5707963267948966
10.694839715957642,0.15048427816961818,3.809654101680852,2.506685575778824,0.23101549424354256,0.3552828342567422,-0.022103464504406006,0.05195174870361504,-0.41225517498285735,0.02477934421059512,-0.35643459448586157,0.9159514035283811
10.714813470840454,0.1528204310342286,3.813201424078592,2.5064658164615428,0.23228982701977827,0.3516939092377235,-0.021838759852474993,0.06516009648018246,-0.39307228485845885,0.02466159325352525,-0.37815488421162335,-1.0860144862880894
10.735301494598389,0.15748012152438598,3.8201579257715954,2.506033965430481,0.23372200986868283,0.3440174814856821,-0.021346755882451194,0.07799652250771559,-0.3747056876474726,0.02453780635581067,-0.3613148235807553,0.8420030315434035
10.754809141159058,0.15982808294223833,3.8235577412095987,2.50583221643649,0.23473081635290918,0.3394963622523996,-0.02079312524535758,0.08733643868399399,-0.3865435147640389,0.024386763691099284,-0.3814506040754999,-1.0067890247372313
10.774726629257202,0.1668846447379417,3.8335214780401494,2.5052346498541245,0.2365634119877899,0.3264378581058766,-0.01962302442381019,0.0802993610120309,-0.40459597369476424,0.02418870292957508,-0.3698601065916689,0.5795248741915504
10.794852256774902,0.17163151721798925,3.8399681402309356,2.5048470137291567,0.23810127800475792,0.3181700313599663,-0.019141259776306065,0.07353190238836789,-0.42209495812724374,0.02398719317297882,-0.38735853863555647,-0.8749216021943784
10.814859628677368,0.17640781133637204,3.8462459826864284,2.5044689723689655,0.23950646355929026,0.30955770937232097,-0.01866355919541925,0.0670307651595491,-0.4390465038296212,0.02378230863715066,-0.3763411889860788,0.5508674824738824
10.834836483001709,0.1787696576661347,3.8492905951630254,2.5043268515463994,0.23944670016715047,0.30454996577398036,-0.017439157690406073,0.06180017074938173,-0.46467647597081635,0.023506697932591268,-0.3900833527388068,-0.6871081876363982
10.854796886444092,0.1859919574254303,3.8582613743586176,2.503838353491075,0.2416202416399229,0.29165801959634513,-0.016046245031849586,0.05946177565566987,-0.4938066918754486,0.023173013497940452,-0.38653803107839346,0.17726608302066627
10.874731540679932,0.19084570839854714,3.8640273507031035,2.5035368158314886,0.24316638131199628,0.28262673599487964,-0.015091144316361113,0.06475230628175366,-0.5225734672424096,0.022805986317611673,-0.3968508863181297,-0.515642761986812
10.894788026809692,0.19572232919910795,3.8695735063409438,2.5032395297877397,0.24451266902776006,0.2718964923569235,-0.01463867589227767,0.06984343146724549,-0.5502743108095122,0.02244123634712338,-0.3950315932934485,0.09096465123406006
10.914718627929688,0.2003905124685595,3.8747484077197902,2.5030056889296257,0.2459887072275144,0.2640017310747314,-0.013195926475564553,0.06603309496729101,-0.576989833052376,0.022009536258623962,-0.40347341802954295,-0.4220912368047225
10.934839010238647,0.2053232462416144,3.8799113153675098,2.5027461437574754,0.24727243696675918,0.25220344459989147,-0.012760014407299326,0.062363133311443004,-0.6026667734804986,0.021582435601392606,-0.40476965813859467,-0.06481200545258581
10.954753160476685,0.20779368100645987,3.882486252376627,2.5026471084355695,0.24791982770846546,0.24845266580777128,-0.01176527591149578,0.08474587850030353,-0.6108758077172501,0.021116536233285386,-0.4071125153931443,-0.11714286272748176
10.974721193313599,0.21525330070117257,3.8897494131142496,2.5023305404523764,0.2501591882401873,0.23227393760339646,-0.010370890277023629,0.11030182212725875,-0.6356898449915139,0.02059691345832073,-0.41890622218024864,-0.589685339355217
10.994856595993042,0.2202801991262083,3.8942661534048932,2.5021272077836847,0.25261255067740135,0.21932095684952274,-0.009964082316442642,0.134870945044895,-0.6594304541034945,0.020085195224161023,-0.4204645380716294,-0.07791579456903897
11.014748334884644,0.22529186174784532,3.8986207714356986,2.5019681431082823,0.25372280622776744,0.20846047849299076,-0.008675653559220016,0.1632479493530744,-0.6805497913275292,0.019523773051027874,-0.4293910691660483,-0.44632655472094385
11.034894227981567,0.23040080223031292,3.902652512752751,2.5017984978463343,0.25726203632387445,0.1946465602660857,-0.00829071189438014,0.19048647266551771,-0.7006778878316194,0.01897199407293398,-0.4364068060511923,-0.3507868442572004
11.054760694503784,0.23545726322609892,3.9065058556555723,2.501668956341858,0.2579506727099627,0.18301519385486847,-0.007111442389360105,0.20821477038545796,-0.7154061139006734,0.018379303333388573,-0.44252941338750595,-0.3061303668156823
11.074743509292603,0.24065906726038136,3.910022134208491,2.5015303643971323,0.26228654481641983,0.16856608154056085,-0.006749690756462372,0.22525913685152382,-0.7293802447955238,0.017797699761769682,-0.4548433683808093,-0.6156977496651672
11.094875812530518,0.2431963181252635,3.9117302138559666,2.501483220882688,0.2618737898581132,0.16289864931405543,-0.006024086707946447,0.23360913998768318,-0.7307948082434074,0.017203435712136183,-0.451168320059677,0.18375241605661508
11.114722967147827,0.25106726136805285,3.9163338233858913,2.5013272117090755,0.2664749837756826,0.14232750446543313,-0.005035227762853506,0.24790586653310961,-0.71565922729029,0.016582643808489922,-0.47994188425955553,-1.4386782099939266
11.134783744812012,0.2564472669885899,3.9190382342968015,2.5012297829326613,0.271571347639994,0.12816294850194604,-0.0047096768255857,0.2616367890983483,-0.7008506145488211,0.015974557756293185,-0.4787831668987228,0.05793586804163642
11.154766082763672,0.2618311783189728,3.921452052869573,2.501148686691721,0.2743804377876089,0.11365603128937157,-0.004195218116705448,0.2644348811693751,-0.7051291413069208,0.015370432854913624,-0.49977466571270757,-1.0495749406992383
11.176305055618286,0.2673718505855692,3.9235838806271413,2.501067816775694,0.2796954501153338,0.09951369338580243,-0.0038937449753728335,0.26703329953811333,-0.7090445499292042,0.014778984028463142,-0.5068272788107993,-0.35263065490458434
11.194757461547852,0.2721023286571759,3.925106912553403,2.501006629886097,0.28263139613658234,0.08572383596410937,-0.0035755586811046995,0.2620577227896554,-0.7096123150353025,0.01420254897075509,-0.5226195004277261,-0.7896110808463419
11.214770078659058,0.2777930870932509,3.9266528644525596,2.500940159924443,0.28733405357939035,0.07071078195043061,-0.003222529483972876,0.2515028804140393,-0.7015191024040025,0.013635971924801892,-0.5359260754929562,-0.6653287532615071
11.234843492507935,0.28358938045573995,3.9279273110637223,2.5008783993685286,0.2922611230376001,0.05676053975933087,-0.002955374005894028,0.24125493483199745,-0.6935209167926668,0.013081600434309356,-0.5501111403219441,-0.7092532414493924
11.254767417907715,0.28948974692882323,3.928848552450546,2.5008288692739318,0.297262279585317,0.041147726842663074,-0.0025243225017264038,0.22566480151324975,-0.6724748703073348,0.012532882393237299,-0.5665664642899872,-0.8227661984021584
11.274916887283325,0.295479110761225,3.9295383860331814,2.500780853425076,0.301623775486779,0.027903851109405062,-0.002279051104700568,0.21056625876107285,-0.6520088607341286,0.011996264198879262,-0.5783873972448421,-0.5910466477427434
11.294779062271118,0.2985479253198028,3.9297152654739644,2.500761999596505,0.3050129277499614,0.019505473490916695,-0.002074004862766124,0.21564535726988374,-0.633627195942969,0.011477794172625712,-0.585031467465885,-0.33220351105214263
11.314706325531006,0.3078590727351018,3.929905949425744,2.500705535172346,0.3135656588780783,-0.0024615719671092617,-0.0017274856870962332,0.25087345670234146,-0.6090780958300809,0.010966253791237453,-0.6164473940017832,-1.5707963267948966
11.334834337234497,0.3141828412227492,3.929736498035146,2.500673145186552,0.31892409631492225,-0.014404461685917988,-0.0015131794206451746,0.284745655587465,-0.5853463181461029,0.010466293381859788,-0.6181343349220034,-0.08434704601101295
11.354746341705322,0.32064641893800916,3.929139274887758,2.500632171662358,0.32521259842691524,-0.030774136525242125,-0.0016408915942325577,0.30492423401492064,-0.5598784497931156,0.010004336351904225,-0.6425446820451635,-1.2205173561580018
11.374784469604492,0.32721295913774945,3.9284134723986024,2.5006013244220715,0.33150589785631446,-0.04172401024237647,-0.0014453375741538856,0.3242672944845643,-0.5352476484708095,0.009552792730203763,-0.6459125748434449,-0.16839463991407122
11.394845247268677,0.3305010634980408,3.927829671906216,2.5005794410556774,0.33367008101132317,-0.050950101736680097,-0.0015798110417485603,0.3467634173519342,-0.5231713100742306,0.009136266222806078,-0.657981402846362,-0.6034414001458543
11.414737701416016,0.34059851828409826,3.9259215823611986,2.500530909063038,0.3425248106376391,-0.07044507562638515,-0.001462045442051815,0.3973448136961981,-0.4908767144894529,0.008735554247887595,-0.67965392856037,-1.0836262857004009
11.434839963912964,0.3475317526849678,3.924416599880955,2.500503389001888,0.35096038779157995,-0.07994942389265658,-0.001291266355373589,0.4458727316462073,-0.45975193330852465,0.008343848049752118,-0.6807159078436347,-0.05309896416323401
11.454817771911621,0.3509856932486524,3.923466519453064,2.5004855918375437,0.35353177989428536,-0.08785217779276834,-0.0013615899576787948,0.4900367102509301,-0.42064060207455917,0.007979532592066184,-0.6910373979344566,-0.5160745045410975
11.474857330322266,0.3581571846110786,3.921627880543858,2.5004599320664345,0.36375819102887696,-0.0958863107149326,-0.0012055742934263267,0.5322875080809082,-0.3830195790321261,0.00762338919633403,-0.694576543851726,-0.17695729586346687
11.494955062866211,0.36531960979831607,3.9193860191169505,2.5004342608514087,0.369133673201193,-0.10948025276801823,-0.0011279460571003294,0.5696891963091179,-0.3431022268646534,0.007283497694342054,-0.7102507177761792,-0.7837086962226625
11.514760732650757,0.3764847718308517,3.915762437107361,2.500403127767232,0.3813871261043649,-0.1254091259562002,-0.0009292684802376644,0.5526974115054487,-0.387868607847714,0.006949761380032929,-0.7201960819008195,-0.4972682062320155
11.534862995147705,0.38422193581597436,3.913173785840138,2.5003859104831805,0.39227361654494186,-0.13359927203755828,-0.0007935469231623529,0.5360006163944332,-0.4308503466236849,0.00662366064800135,-0.7224013099917825,-0.11026140454815092
11.554757118225098,0.388058111540421,3.9116973356797318,2.5003794686495464,0.39429887012820164,-0.14151226759791954,-0.000690390537492993,0.5043434404087344,-0.4821327942131216,0.006309977086518444,-0.7308387408578461,-0.4218715433031761
11.574699401855469,0.4042359682058592,3.9057256500185997,2.5003653732271456,0.41451069860115053,-0.1584346485145093,-0.0002183719827892973,0.4632817935499793,-0.46523811853743574,0.005983273124129591,-0.7407542928043398,-0.49577759732468696
11.594728231430054,0.4126161589157343,3.9024650090106174,2.50036218105365,0.42337534944943506,-0.1675749155167945,-0.00010190829653112505,0.4233747109302278,-0.44887698426393713,0.005664392868887387,-0.743930488746325,-0.15880979709925747
11.614758968353271,0.4169519119164409,3.9008536988389624,2.5003672130114047,0.42966459765335646,-0.16949827355366598,0.00011182787795467054,0.37987895285410206,-0.43342980824149385,0.005350418064417594,-0.7425292123350449,0.07006382056400362
11.63480830192566,0.4256183442028894,3.8973780495009067,2.5003704991061824,0.43683792282427686,-0.1780170143099969,0.00021576066476152784,0.3376662755981843,-0.4185359119207485,0.00504413623015328,-0.7508565433008538,-0.4163665482904477
11.654799222946167,0.4301639382037752,3.8956126881989843,2.5003765183842113,0.4444772661917978,-0.18118652182797274,0.00035908582718517846,0.29537772313300437,-0.40891249167236643,0.004746572370646168,-0.7477357555457864,0.15603938775337056
11.674870014190674,0.439109804035973,3.891907800974805,2.500384629949939,0.449972628845932,-0.18927117745041627,0.0004511036505682631,0.25437103889975815,-0.39960548568426046,0.0044564425941501,-0.7568639583988652,-0.4564101426539402
11.694777488708496,0.44848619974433623,3.88801682728381,2.50039553295025,0.46290151357324416,-0.19797412075924697,0.000557493041019718,0.2110131843287654,-0.3979981659098345,0.00417636936189913,-0.7574639169369837,-0.029997926905922512
11.714782238006592,0.4626889831818721,3.881878265093408,2.500413463190908,0.47491011175234227,-0.21057550086822174,0.0006605826249464721,0.13545663739150035,-0.4142120953493939,0.003903809924106636,-0.7669055015948532,-0.4720792328934742
11.735682010650635,0.4722093758028808,3.8775828715292397,2.5004274377858,0.47688635783050387,-0.2190152533124717,0.0007359917013806556,0.06261834909766797,-0.42963159459114825,0.0036382598394542605,-0.7714489403143734,-0.2271719359760116
11.754829168319702,0.47721174472117217,3.8753900724145494,2.5004337880812715,0.4835690076908033,-0.22282914818856445,0.0007284668624418601,-0.005291973456236387,-0.44800823899977177,0.003388810326379036,-0.7708821647533552,0.02833877805090701
11.774746894836426,0.4970293051205295,3.86623997809306,2.5004613663045814,0.49452820564690436,-0.23777656816658976,0.0007624145568863942,-0.09067571611909021,-0.4667356834376838,0.003149339122363287,-0.7835941412878218,-0.635598826723327
11.794800519943237,0.5068962068079201,3.861389897869518,2.5004772288139114,0.49188833007452476,-0.24729076639772257,0.0008230591156554865,-0.17276628217496093,-0.4845295473489668,0.0029161598784978424,-0.7893515981302874,-0.28787284212328235
11.81469178199768,0.5120931975741133,3.858986265169299,2.5004831363585835,0.497636213912684,-0.24947848628400893,0.0007768067565538241,-0.25500824788675214,-0.4854171443883376,0.002699720110603339,-0.7869342540210913,0.120867205459807
11.834744453430176,0.5219896030121266,3.8538995650484895,2.5004991982968248,0.4917412118291542,-0.25919367227955054,0.0008286848003568149,-0.3339443369127192,-0.4860611474075777,0.00248903893933334,-0.8011766423727713,-0.7121194175840007
11.854746341705322,0.5272355678956193,3.851377294809633,2.5005068197248663,0.49746473291454835,-0.2613509540748734,0.0008362205878369942,-0.41985076819842787,-0.4757235738340293,0.0022903527083774885,-0.7948399275223066,0.316835742523236
11.874743461608887,0.5370953453590089,3.8460558103652707,2.500523989230632,0.48823864170675857,-0.2707636854977712,0.0008800856224138088,-0.5021630235544985,-0.4655820812933909,0.002097041851987048,-0.8121557502854255,-0.8657911381559469
11.894815921783447,0.5473494102862022,3.8406245264843073,2.5005442100022544,0.49224754636483387,-0.2782679130458587,0.00098020265316395,-0.5800237461650009,-0.45882093993072315,0.0019084998869687306,-0.8108261239008616,0.06648131922819545
11.914680480957031,0.567114475243946,3.8291429687224094,2.5005898607309702,0.4816057676450291,-0.29620527178625805,0.0012017200872465835,-0.6482695017087016,-0.45242079793193135,0.0017143374574307942,-0.8357056577660837,-1.2439766932611063
11.934940814971924,0.5766125394897873,3.823128810518263,2.5006142253310477,0.4679833209109139,-0.305188901639375,0.0012341110181861685,-0.7134709412823098,-0.4459267427553636,0.001525665773484602,-0.842073306829088,-0.3183824531502122
11.954757928848267,0.5815079556569169,3.820059525131873,2.5006285742183962,0.46740415440677163,-0.30952696994330875,0.0012948508025045946,-0.7705713662417201,-0.4484874777948582,0.0013443402481143852,-0.8442730291548997,-0.10998611629058352
11.974714279174805,0.5908465431473011,3.813781455598573,2.500658001834192,0.4566293659765912,-0.31836424730892277,0.0014364737583179839,-0.7894055948658506,-0.4416856239112891,0.0011625816929427297,-0.8589019268931399,-0.7314448869120138
11.994831323623657,0.5998200526080382,3.8073262908290255,2.5006869519761237,0.440662717485638,-0.3271293016154869,0.0014579523899343498,-0.8070646258959616,-0.4348072549444058,0.0009861672189458081,-0.8720291265891409,-0.6563599848000479
12.014817953109741,0.6087393826553191,3.800700537818316,2.500733191236179,0.43049027798136497,-0.33578527315093365,0.0019083405925096157,-0.83994052181769,-0.43674017544821603,0.0007908737865061379,-0.8824796219096762,-0.5225247660267662
12.034884691238403,0.6171790984947828,3.793897377688987,2.5007715035008755,0.41337771646698185,-0.34453570413553675,0.0019222547114364117,-0.871017751064133,-0.43822960013807516,0.00060152299512554,-0.8993880555286586,-0.8454216809491211
12.054810523986816,0.6213386381571655,3.7904262576248446,2.5008035399161668,0.4064133245372402,-0.34894209740937915,0.002292779495983081,-0.8805982576476109,-0.4277187170776833,0.00039975134976384755,-0.9025978293898542,-0.1604886930597793
12.074703454971313,0.6331619340355243,3.7797553785822755,2.500884616314992,0.38072093130410223,-0.362125761954729,0.0026492326278584133,-0.8693281172265783,-0.43217766634805593,0.00018339680154254173,-0.9340137559257524,-1.5707963267948966
12.094889402389526,0.6406032523450647,3.772426152017049,2.500937623568435,0.36344939510377605,-0.37081032921733253,0.002650794509194353,-0.8577795756897171,-0.43620816365536674,-2.6066700923003094e-05,-0.9471788411070854,-0.6582542590666485
12.114857196807861,0.647612961324382,3.764908894999415,2.500998071024228,0.34380345570951104,-0.3798234537312759,0.002792179672053282,-0.8550155801135192,-0.434457937050443,-0.00023287075556864038,-0.9695220845316612,-1.1171621712287916
12.134701251983643,0.6542445472910557,3.7572238564669127,2.5010540207995966,0.32420439120000866,-0.38869934526238964,0.002787684301412191,-0.8572190123987022,-0.45128053596156553,-0.0004303939606025568,-0.9902020209487494,-1.0339968208544104
12.154844522476196,0.6605570871864447,3.749358536529278,2.5011096755682454,0.3070450988831445,-0.39788575709972906,0.0027771560925327044,-0.8585690641009303,-0.46721330862648314,-0.0006213364936482045,-1.010623148331402,-1.0210563691326335
12.174800157546997,0.6634310223693011,3.745366604030095,2.501135427520885,0.2941159442980215,-0.4023751588076888,0.002711008834861888,-0.8476778784113473,-0.4854554043742628,-0.0007963617962812519,-1.0234051962337194,-0.6391023951158648
12.194692850112915,0.6717014680010233,3.733123012928958,2.5012146656708585,0.26415549133585614,-0.41564223915459125,0.0026383379408477623,-0.7967082484563686,-0.4923973131197682,-0.0009601972815477779,-1.0548211227696171,-1.5707963267948966
12.214831113815308,0.6768285749954168,3.7247112505112603,2.5012672297564986,0.2487211684282495,-0.425555503948196,0.0026175437165080473,-0.7469199558269197,-0.49884782460953836,-0.0011182704192080587,-1.086237049305515,-1.5707963267948966
12.23481559753418,0.6813110146480895,3.716177885371189,2.501308633600177,0.22525968831209964,-0.43368308730393806,0.002286607893390154,-0.7039813655611857,-0.5076982055936039,-0.0012461013340716726,-1.1176529758414127,-1.5707963267948966
12.25476598739624,0.6856782291589758,3.7074021193875835,2.501354108254009,0.21160185852473679,-0.4439213198017277,0.0022604472465306753,-0.661952493168617,-0.5160409277922475,-0.0013691752798803273,-1.1442589330987718,-1.3302978628679574
12.274741649627686,0.6874630466366073,3.7029821830303704,2.501358601932248,0.1967358956057585,-0.44781413698444594,0.001712875180681386,-0.6251794138494002,-0.515962680622206,-0.001449277183851131,-1.167109378264037,-1.1425222582632566
12.294649362564087,0.6943125599827741,3.6847125356490746,2.5013951425352916,0.15903182494730836,-0.4673087246060988,0.0008931774751249782,-0.6047682703489463,-0.537659972452522,-0.0014745866715442884,-1.198525304799935,-1.5707963267948966
12.314807176589966,0.6973735992177422,3.6752574370484044,2.501412709561261,0.14713984494440313,-0.47826984126537886,0.0008634461532551236,-0.5844443721473772,-0.5582719406933904,-0.001498277587576732,-1.2299412313358329,-1.5707963267948966
12.334765911102295,0.6985356615816513,3.6704820350430207,2.5014005025518022,0.1339874025365377,-0.4828285199920413,0.00026148969597802554,-0.5138953483128423,-0.5584834452995262,-0.001481299608170797,-1.2613571578717309,-1.5707963267948966
12.354899406433105,0.7011172286683319,3.6607137680803534,2.5014054372318415,0.12439746943046881,-0.49399793491966204,0.00023203584302261402,-0.4454459723772881,-0.5584111131594935,-0.0014640391893546644,-1.2927730844076288,-1.5707963267948966
12.37481427192688,0.7020635594313567,3.655802914168763,2.5013909294971426,0.11283766929684327,-0.49766779318930243,-0.00025698301359879734,-0.35376638517484826,-0.5202272469748009,-0.001415788451446847,-1.3241890109435268,-1.5707963267948966
12.394928932189941,0.7042555222790945,3.645747994081193,2.5013855098589715,0.10665428084947406,-0.5077012202097885,-0.00028482242721237323,-0.2650662097164564,-0.48332839353667745,-0.0013682754731273194,-1.343292911982288,-0.9551950519380625
12.414831638336182,0.7057615734934872,3.635505773261281,2.501353189688185,0.0874261937499778,-0.5172241043770739,-0.000975091313607129,-0.17988239831342556,-0.45337979652470495,-0.001278450593195228,-1.3723223682029373,-1.4514728110324615
12.434876203536987,0.7078636833649757,3.6197122076425368,2.501300471180494,0.06985072216269544,-0.5327371295401956,-0.001692992891519605,-0.13312138398998213,-0.42314181520671534,-0.0011462781947204302,-1.394944535516551,-1.1311083656806886
12.454843282699585,0.7092371211160338,3.6089748018710637,2.501266390702017,0.0676442754448403,-0.5409060279776929,-0.0017146261311550674,-0.08775438588292846,-0.3939157381384705,-0.0010176300809096935,-1.3937666301424916,0.058895268702974235
12.474785804748535,0.7095198652268692,3.6034476281493895,2.5012228690918796,0.05632290342894849,-0.5474298201605418,-0.0024682293749705804,-0.027057474067288756,-0.36383494825986906,-0.0008476079917681632,-1.410536744124821,-0.8385056991164763
12.494765996932983,0.7108463075251285,3.5867302674399077,2.5011058005291527,0.045981920185691194,-0.5619204147122153,-0.003786249219780082,0.014636088144685797,-0.3459357350811421,-0.0005994592276083819,-1.4211553618878028,-0.5309308881490837
12.514831304550171,0.7117715863686175,3.575423834011049,2.501029971822557,0.04668052598861933,-0.5686653455310823,-0.003795819146020676,0.0550048708229539,-0.32866082839402994,-0.0003587697392843067,-1.4176861328025543,0.17346145426242465
12.534740447998047,0.7123247405238085,3.5638182989402116,2.500890035936636,0.03840576106005662,-0.5791261231828605,-0.0053033523238863005,0.07269027190696199,-0.3055259944539589,-3.3391764911876405e-05,-1.429665412800863,-0.5989639999154361
12.554779052734375,0.7131085456712754,3.552176177570343,2.500783983393894,0.04003189726972784,-0.5850112961400431,-0.005300851289264665,0.08983343934563427,-0.28311056843887505,0.00028180846392990196,-1.4243178643874634,0.2673774206699786
12.574798107147217,0.7133341899087833,3.5462224740802366,2.500711672828771,0.035992863111379954,-0.5901346320289376,-0.005796525023225082,0.09130788408207131,-0.25567051787196793,0.0006106337329822092,-1.4309179767652307,-0.33000561888836266
12.594727039337158,0.714341982043735,3.528301601077299,2.5005408951088426,0.03562195867415721,-0.6005273662083906,-0.005665119485101662,0.08550075909452581,-0.23339908336742685,0.0009194576323857568,-1.4294834055786272,0.0717285593301753
12.614847421646118,0.715071154238374,3.5162458272066024,2.500427796692585,0.037277235189314126,-0.6049778792367727,-0.005643726430380722,0.08009298593640729,-0.21175648850349277,0.0012181726453389132,-1.4277245329821746,0.08794362982262882
12.634799718856812,0.7157989528350938,3.503956913270714,2.5003279607044693,0.038233056807799856,-0.6127413189228696,-0.005301303576464446,0.06527274667381378,-0.19359623473587095,0.0014791297502128448,-1.4271328503695948,0.029584130628990124
12.654959917068481,0.7165757169323824,3.4916645549092062,2.5002222474121822,0.03939637633230973,-0.6164355423082981,-0.005269185337719922,0.05117961496880378,-0.1759036849317184,0.001731225821324107,-1.4256883654421604,0.07222424637172153
12.674813747406006,0.7170367448423367,3.485399843000468,2.500175946460922,0.04177985945990409,-0.6206650568722875,-0.005076669263777884,0.040100376902038784,-0.16364483682759695,0.001956093139013898,-1.4233902998758616,0.1149032783149373
12.694763422012329,0.7184345920820133,3.4666222254598225,2.500028515555557,0.04654733356660841,-0.6278344523667129,-0.004900357305829873,0.025819671796760094,-0.15346395179289102,0.0021627970719449246,-1.4183521744927046,0.2519062691578533
12.714788913726807,0.7193697887416679,3.454035511851238,2.499930954374656,0.04692726548931234,-0.6308036712815454,-0.004855096694401348,0.01229943248306027,-0.14349276364279218,0.002362025499007966,-1.4190433446265536,-0.03455850669245031
12.734824180603027,0.7204921877528196,3.4419480728781062,2.4998522626641204,0.05292388758734013,-0.63526064006461,-0.004445889128476327,-0.0005530171379953908,-0.13027223612774047,0.002524475526889141,-1.4119572140506247,0.3543065287964442
12.754800796508789,0.721549734817382,3.42921766991338,2.4997638602934678,0.05279042258280338,-0.6377367255100632,-0.004393827281301825,-0.012672066237756196,-0.11739291442748441,0.0026806734235580105,-1.413762307825076,-0.09025468872256859
12.774769306182861,0.7222509390313637,3.4228033727990628,2.499735998930989,0.05758779340813638,-0.639657909023347,-0.0038985737136345905,-0.01811319257446191,-0.10446614670148778,0.0027956433981254545,-1.4077886875651704,0.29868101299528327
12.796226739883423,0.7248119428307671,3.3970889318531188,2.4996133207508713,0.06351828821057635,-0.6447691982841448,-0.0030027040631619498,-0.028481804083132473,-0.08981512996818378,0.0028519344086810907,-1.4022644571343632,0.27621152154035933
12.814853429794312,0.726075951212156,3.384176542762646,2.4995538406558655,0.0628499987882162,-0.6464221279911758,-0.002945128006212125,-0.03824727880025176,-0.07554024081814341,0.0029051644294047297,-1.4041800479135935,-0.0957795389615157
12.8347749710083,0.726866195141047,3.3776944531533744,2.4995464428343404,0.06699388220522536,-0.647434402717624,-0.0022901588867013283,-0.05404083487685276,-0.06014916393921681,0.002912864596030404,-1.3988952856392791,0.26423811371572015
12.8547523021698,0.7281942520955411,3.364734741550442,2.499501222664867,0.0657618553685138,-0.6484867714940465,-0.0022318375831684753,-0.06902836903073709,-0.04515327956263588,0.002919008239203651,-1.4013152656063708,-0.12099899835458228
12.874810934066772,0.7297535093799358,3.3517252350204614,2.4994897766247712,0.07085055701733858,-0.6499144710659247,-0.0013626620139408397,-0.06683719297212092,-0.017257405255590164,0.00286920026408681,-1.3946739589554398,0.33206533254654946
12.89469289779663,0.7312489002294784,3.3387114207985107,2.4994744454805846,0.07257469237048281,-0.6504735393371871,-0.0009289172149744,-0.06366538610479573,0.008366404426135315,0.0027950762674701715,-1.394065269789935,0.030434458275241383
12.914794683456421,0.7326878726422943,3.325705290151824,2.4994564212638464,0.07133313382274627,-0.6500568682803736,-0.0008737479482924611,-0.060489925824255435,0.033163663992922365,0.0027220293161393963,-1.3950958354378555,-0.05152828239602947
12.934738397598267,0.7335318826726799,3.319173535116129,2.4994666238586114,0.07450897339270408,-0.6504478778374169,-0.00031205638764003103,-0.0569321095484845,0.05870358960887139,0.002616856983676042,-1.3910815963780518,0.20071195299018463
12.954732894897461,0.7350109118259709,3.306177977762042,2.499460899197736,0.07340572908979509,-0.6490255986657366,-0.0002607531521667355,-0.05339597099194748,0.08338141550776229,0.002513821007972035,-1.392712695661021,-0.08155496414845587
12.975061178207397,0.7366107282339202,3.2931246120656144,2.4994826991913937,0.07581599498072261,-0.6494442708832102,0.0004445476619933704,-0.0474910931737244,0.10501865494283392,0.0023711929294660413,-1.3891628552524236,0.17749202042987022
12.994731664657593,0.7389240172378965,3.2736284574226797,2.4995127626867153,0.0761099458888644,-0.6478065973177684,0.0009584254338184335,-0.042208839616240126,0.1268791404328694,0.0022025790440039356,-1.3888276340073908,0.01676106225163565
13.014842510223389,0.7404381209702166,3.2606991205820974,2.4995323606871516,0.07531766400908813,-0.645056753876174,0.0010008270011703535,-0.037037827629885,0.14797913580335684,0.0020382957036903593,-1.3889716869467243,-0.007202646966675275
13.034736156463623,0.7412320032215833,3.254212102789935,2.4995566873385453,0.07612189057768033,-0.6445473679814334,0.0014232666128472145,-0.038970028599130985,0.1779091556426558,0.001856268877190736,-1.3877180460207958,0.06268204629642504
13.054847717285156,0.7427465289232484,3.2413586775655783,2.4995855120353725,0.07532495144112647,-0.6406990507341458,0.0014586126841323005,-0.040688524256411264,0.2067404764647358,0.0016791522802505601,-1.3879580287306184,-0.011999135491125301
13.074741125106812,0.7442910227589606,3.2284972900113904,2.499634720266808,0.07566117767263243,-0.6386787513871249,0.001977680759316293,-0.04034271998079438,0.223359683552442,0.0014783360246460719,-1.3867602919614541,0.059886838458211855
13.094759464263916,0.7465696562885309,3.2093785892827507,2.4997062183088867,0.07522064104809968,-0.6335044809045701,0.002346500977616222,-0.03896666162294056,0.2379416467245441,0.0012624108018055183,-1.3861535161865828,0.03033878874356688
13.114866971969604,0.7480663687727057,3.1967570315903138,2.499753386729079,0.07445527781363905,-0.628604581239105,0.002369642158739136,-0.037565539303082575,0.2519538796947045,0.0010527448073748217,-1.38604351246521,0.005500186068641
13.134750366210938,0.7495760219660527,3.18417980542503,2.4998163738189376,0.07435900523436892,-0.6247844468220685,0.0027682626498192514,-0.03827932213072529,0.2639363360596884,0.0008288503196950622,-1.3851740497956884,0.04347313347607962
13.154920816421509,0.7510555036261595,3.1717376791748233,2.4998718902519106,0.07358711447010607,-0.6193897951993139,0.0027826567120696082,-0.038893239963197865,0.2754513164310047,0.0006116684759716696,-1.3850722924718066,0.005087866194086743
13.174782991409302,0.7517977308065086,3.165542064291842,2.4999083649955347,0.07340923646907453,-0.6169619815240842,0.0030304335419393414,-0.040627571301405256,0.28353135074402147,0.0003912716224550582,-1.3847269136164029,0.017268942770187756
13.194684267044067,0.7539867435005837,3.1471565160204102,2.5000070281193727,0.07233756076947963,-0.608475662149845,0.0032543508319908027,-0.03964837008109356,0.2910865936882012,0.00016507504268438284,-1.3841669811783837,0.02799662190096086
13.214824676513672,0.7554256322401239,3.1350457059783805,2.5000721334266762,0.07155470472663851,-0.6025813428457226,0.003255449567813578,-0.03863091948962843,0.2982864197600642,-5.40254497611918e-05,-1.383930799995228,0.01180905915778574
13.234794855117798,0.7568510253873306,3.123076020596778,2.5001468450390725,0.0708108625682585,-0.595970820356268,0.003488693328484667,-0.039288406718542584,0.3036276728706791,-0.0002762692157236908,-1.3834613954548403,0.023470227019384282
13.254741907119751,0.7582593462623735,3.1112176713366138,2.5002165491951356,0.07001937513171337,-0.5898472647865322,0.0034810053998799878,-0.039843372506759143,0.3086799867954566,-0.0004913339613140368,-1.383182819723492,0.013928786567407592
13.27475881576538,0.7589554037114057,3.1053604581785006,2.5002564927782203,0.06953876778704234,-0.5859552014784972,0.0036196485785059728,-0.04207502242644691,0.31412290641008506,-0.0007025496255120476,-1.3830403627016998,0.0071228510896137465
13.294719934463501,0.761020702571417,3.087953112958563,2.5003691618298123,0.06819176830886053,-0.5756295187600474,0.0037205462948914935,-0.045879628616998056,0.31794659836236855,-0.0009127182033269669,-1.3825123913960857,0.026398565280705277
13.314819574356079,0.7623751198418189,3.0765043542758885,2.500443376556438,0.06723804003609397,-0.5692344386112975,0.0037002494748030676,-0.049455286333174045,0.32151991228453486,-0.0011157874292060004,-1.3824245870855354,0.004390215527516617
13.334732294082642,0.7635777061528699,3.066363948367535,2.5005146300497536,0.06634018121951514,-0.5620185071759034,0.003799588193166528,-0.05303054706977985,0.32530848582632393,-0.0013140435187607334,-1.3820793068623993,0.017264011156803427
13.354782342910767,0.7648936767255535,3.0551888798889397,2.5005903461341514,0.06524571767767617,-0.5554765511149948,0.003771382442892604,-0.056378108709256976,0.3288454012205744,-0.0015053859766275904,-1.3821156701491437,-0.0018181643372194856
13.374816417694092,0.7655474366143796,3.0496931488056362,2.500630584245676,0.06474731976350522,-0.5509249661593115,0.0038275380428482403,-0.06290144758280904,0.33340481022635904,-0.0016887943744140078,-1.3818232607922518,0.01462046784459492
13.394711256027222,0.76747113840517,3.033356961812218,2.500746761807953,0.0630976824315386,-0.539687041143054,0.0038345525840721723,-0.06814701546693525,0.3393510748564629,-0.0018667859750033857,-1.381635112186151,0.009407430305041764
13.414825916290283,0.7687191287252487,3.022631468826868,2.500823067963927,0.06168491436160626,-0.5328436874960353,0.0037954915115537054,-0.07307764922513536,0.34492211635025505,-0.002038237794008865,-1.382044088610736,-0.020448821229246406
13.434755325317383,0.7699553352605821,3.0121037455911828,2.5009009474145656,0.06060996483452369,-0.5244398742054889,0.0038114623954100214,-0.07902854514250525,0.3476108780348811,-0.0022014675400430467,-1.3816064902908607,0.021879915993761045
13.454911231994629,0.7711513492235874,3.001684636761097,2.500976725799379,0.05897273323806028,-0.517462896400538,0.003765852778451396,-0.08463808639295999,0.35004464754748604,-0.002358461032259843,-1.3824130478786325,-0.04032787938859084
13.474794149398804,0.7717500555244431,2.9965632020527453,2.5010154634665804,0.05846348138764865,-0.5129138287407959,0.0037744718988573663,-0.08917684017536413,0.3531917055931318,-0.0025063106795192996,-1.381947415235229,0.02328163217018009
13.49473786354065,0.7734805323428583,2.9813690055341144,2.5011285292608996,0.05621620845245361,-0.5013125292844357,0.003724744555537343,-0.09450964074980507,0.35623317980764346,-0.002646913277367697,-1.3827026255880546,-0.03776051764128319
13.514778852462769,0.7745856157417169,2.9714141899184403,2.5012024856834354,0.05427546529156059,-0.49415985450998845,0.003670448162564796,-0.09950955552864632,0.35898656877942614,-0.0027817750845463528,-1.383678971184816,-0.04881727983807593
13.534919738769531,0.7756728361295178,2.961655022316535,2.501276213863374,0.05278448864432303,-0.48566181353419396,0.0036346709872208094,-0.10427257044290907,0.36137656237083454,-0.002907033099375534,-1.3837652652593244,-0.0043147037254165355
13.5548837184906,0.7767073701064539,2.9520142066963455,2.5013483177957774,0.05065411383574311,-0.47841271326013335,0.0035753226830898006,-0.1087112063232734,0.3634871863262234,-0.003026905243880288,-1.3852801050519077,-0.07574198962916334
13.574751615524292,0.7772216206189781,2.947279913961704,2.501384246724666,0.04988759159921562,-0.4738677568857558,0.0035530992347701904,-0.11449643137817186,0.3644822868642311,-0.0031376742249213324,-1.3850515078201047,0.011429861590150914
13.59471082687378,0.7786818040405934,2.93325637411362,2.5014896877685326,0.04684043118666149,-0.46210934386033115,0.0034652304368167296,-0.11937171501952616,0.3659579156594757,-0.0032404765398320024,-1.3872062982968794,-0.10773952383873464
13.614838123321533,0.7795944305363118,2.924087465062579,2.5015583376712422,0.04440711421718352,-0.4547774499880173,0.0033994333158526165,-0.12390304278552636,0.3671913394354132,-0.0033384330502031607,-1.3887612784694106,-0.07774900862655976
13.63481068611145,0.7800009031026737,2.920035247235357,2.50158887703466,0.04359246185854931,-0.45071753748190535,0.003370551711523013,-0.12805599205187734,0.3679856739167463,-0.003427949336337111,-1.3887614171304266,-6.933050800128626e-06
13.654841899871826,0.7808468806889141,2.911094535486418,2.5016555967376495,0.04099254556167785,-0.4433517277603768,0.0033011352646943864,-0.13188142845073336,0.3685586120272668,-0.0035129471140282744,-1.391303578283417,-0.1271080576495276
13.674829721450806,0.7816610859721651,2.902338486890937,2.501720962606853,0.038816661760442205,-0.43503401844891215,0.0032310716660757695,-0.13739420611344794,0.3709726504426809,-0.003588762462577476,-1.392371826479217,-0.05341240978999906
13.694812536239624,0.782774968780076,2.8894762058443924,2.501816193065555,0.0349673846260203,-0.423259429724266,0.003120279586016263,-0.1426823294019311,0.3745768886704063,-0.0036566596855429397,-1.3959979927629045,-0.18130831418436966
13.714780807495117,0.7834454469159038,2.881086156494934,2.501877862997349,0.032064096090465954,-0.4157345837095826,0.0030465004779418026,-0.1475822794594978,0.37785340468993023,-0.003720595215294659,-1.3982803578908556,-0.11411825639755513
13.734780311584473,0.7840710011017046,2.8728722361567556,2.5019378034844033,0.02944015418110989,-0.40756261252175985,0.0029651810592519075,-0.1495627403692482,0.37918965519766307,-0.003775695822306459,-1.4005236607601186,-0.11216514346314987
13.75478196144104,0.7846297732296039,2.864796898111775,2.501996348474601,0.026431363384035934,-0.3999675903821328,0.002889146372432715,-0.15127137597331197,0.38027018228336423,-0.0038271730440892007,-1.4036320782050387,-0.15542087224600376
13.774779081344604,0.7848932227591817,2.860827372016337,2.502024934302614,0.025080734959276117,-0.3958197693353931,0.0028473791509997706,-0.15332642262989576,0.38384232998720574,-0.0038720515312121737,-1.4043151309640753,-0.03415263795183421
13.794740200042725,0.785364049166179,2.852987966194837,2.502081104651406,0.021995986634727942,-0.38811004010425243,0.00276951731044438,-0.1551022256263885,0.3870742084676625,-0.003913577640967563,-1.4082363020928585,-0.19605855643916037
13.81482720375061,0.7857763902529864,2.8453141922422023,2.5021355662715736,0.018938039828213713,-0.3800609543522368,0.0026868386420338753,-0.15788433460152862,0.39296215786111843,-0.0039473338290167675,-1.4112203026940928,-0.14920003006171356
13.834694623947144,0.7862715583449422,2.8340905928110556,2.502214163430649,0.014108705342508859,-0.36818691301775974,0.0025618905957456254,-0.16192473196216173,0.39980843703218794,-0.003973940104283036,-1.4174012435416132,-0.30904704237602054
13.854700803756714,0.7865210967900358,2.826807247857842,2.502264604823211,0.0108329115851145,-0.36012641189292677,0.0024821694485990154,-0.1655930984428874,0.4061596588285179,-0.00399770432826981,-1.4204884308748487,-0.15435936666177152
13.874804496765137,0.7866183295584396,2.823222254295699,2.5022890028460703,0.009080108519294779,-0.3561726037114427,0.0024348912031565383,-0.16755039355009213,0.4081404563448815,-0.004016045550785729,-1.4223246888565468,-0.09181289908490875
13.894791603088379,0.786766305862101,2.816180546512684,2.5023368963689774,0.005711975331782126,-0.3479926270778459,0.00235440864590224,-0.16921442317637536,0.4098047724824383,-0.004031778675544479,-1.427323055665598,-0.24991834045255956
13.914786100387573,0.7868465297998425,2.809285272924631,2.5023830383995844,0.0022816149322587354,-0.34018597050585525,0.0022712965776663803,-0.17354455946349345,0.4141597228880169,-0.00404100361237325,-1.4316282075775277,-0.21525759559648527
13.9346923828125,0.7868362066340816,2.7992566391294003,2.5024492971608443,-0.0029748557294543374,-0.32801524665130516,0.0021483281647727307,-0.1773465465510857,0.4156028892889882,-0.004044089372022735,-1.439866981917871,-0.41193871701716844
13.954790115356445,0.786741004674571,2.79277953708469,2.5024914548086965,-0.0065568205722531,-0.3196910724888893,0.002067433529093163,-0.18079073838596071,0.4167685420069119,-0.004045017338844135,-1.4439964580509927,-0.20647380665608228
13.974823474884033,0.7866654169374476,2.789597193018605,2.502511592681509,-0.008397035535284394,-0.3157353740383569,0.0020153896363149736,-0.18101438914896312,0.41160989708126255,-0.004041479512060895,-1.4462529170111276,-0.11282294800674109
13.994706630706787,0.7863315735701192,2.7803108781004853,2.502569675753116,-0.01385633531914698,-0.3033655806452151,0.0018788120806706508,-0.18172038895433973,0.40981257925024484,-0.0040313476704695785,-1.4570445050432237,-0.5395794016048061
14.014823198318481,0.7860180686158265,2.7743254003633915,2.5026064464883393,-0.017495655586460296,-0.2951887710893476,0.0017983010470351368,-0.1821691007022975,0.40783920615417474,-0.004019466542387226,-1.4612758598261297,-0.21156773914530191
14.034741163253784,0.785624214361375,2.768515365230373,2.502639958809199,-0.021340667597202604,-0.2866992641385761,0.001674277640437801,-0.18213276586461696,0.4089523420809665,-0.003999799120044432,-1.4688001480728186,-0.3762144123344413
14.054913520812988,0.785160988374761,2.762863230413388,2.502672645785681,-0.02498104532186974,-0.27851145301166663,0.0015944903766383755,-0.181867107456025,0.4097817620192208,-0.003978688903049652,-1.4749956853117954,-0.3097768619488406
14.074822902679443,0.7848936517635918,2.7601081188182692,2.502687343938376,-0.027016134105776576,-0.2741875303997955,0.0015253075748362006,-0.17819057555392567,0.40480149958914946,-0.003953244879878639,-1.4778510303826875,-0.14276725354460673
14.09473705291748,0.7839900639635842,2.7520741137610747,2.502730500702434,-0.032713364509352215,-0.2617879741770001,0.00138367113301184,-0.1746742180419359,0.4020390011197331,-0.003921553736617112,-1.4921940483912743,-0.7171509004293419
14.114796161651611,0.7833010999220287,2.746918571012341,2.5027573919792525,-0.03617107466946896,-0.2537759682042646,0.0013055656538778018,-0.1710847529418466,0.3991387755134555,-0.003888822563595526,-1.4965261359424644,-0.2166043775595039
14.13474178314209,0.7825163701439393,2.741941199165675,2.5027796220662837,-0.040244139082635334,-0.2453359621157433,0.0011463928100898296,-0.16560545042306285,0.3975624068872029,-0.0038470639060190527,-1.5070281246881734,-0.5250994372854478
14.15479040145874,0.7816787310702225,2.73711387796675,2.5028017833285174,-0.04350153683696123,-0.23740203444517458,0.0010698749278526794,-0.16013602566864427,0.3957994427380136,-0.003804609803812145,-1.5133580808205724,-0.3164978066199531
14.174959897994995,0.7812125102558991,2.7347742399630475,2.502810355101418,-0.04571684287061557,-0.23301305808638823,0.000976796393010194,-0.15364558629975636,0.39773760097722255,-0.003757505132247643,-1.517918952859542,-0.22804360194847995
14.194768190383911,0.7797412025837241,2.7279754121385067,2.50283643443833,-0.05112047961305472,-0.22076052280232894,0.000821259984181595,-0.14306317012225797,0.3943859552104191,-0.0037038604480066043,-1.5351925147648113,-0.8636780952634648
14.214855432510376,0.7786908785846537,2.723638847930944,2.502852122455562,-0.05387712985607107,-0.21290756923923324,0.0007477214374996416,-0.13262603164652517,0.3908845996693783,-0.00364995107771048,-1.538908498101901,-0.1857991668544834
14.234790086746216,0.777533026866223,2.719474787300597,2.5028621072417856,-0.057806656059948426,-0.20468284738370757,0.0005639668032936148,-0.12029865982911024,0.3911973651248462,-0.0035864758872691596,-1.5525523921514075,-0.682194702475325
14.254729986190796,0.7763536444554452,2.715459375701887,2.5028726735097155,-0.0600912519675317,-0.19685826660219485,0.0004928712610633849,-0.1081987217779066,0.39121119086504386,-0.003523094606872121,-1.5577795659151426,-0.26135868818675245
14.274754285812378,0.7757029333022106,2.7135208532941992,2.5028748199277784,-0.06236216376934204,-0.19261058615026663,0.00038336056355693616,-0.09844232169346018,0.3964564862478147,-0.003455226663016066,-1.5646646755202045,-0.34425548025309727
14.294748544692993,0.7744366443568372,2.7097482579985197,2.5028818006038915,-0.06423471800145752,-0.1846330934749213,0.00031493231484680577,-0.0888384825800455,0.4012115666302752,-0.0033876466090491946,-1.5730313136733105,-0.4183319076553005
14.314841270446777,0.773049050080863,2.706140053615301,2.5028845310869046,-0.06809994522520538,-0.17641233468773448,0.0001758298891795167,-0.08444007710928078,0.41744075162042904,-0.0033140372791903403,-1.5872168311726529,-0.7092758749671191
14.334786653518677,0.7716410464365222,2.702687995031847,2.5028863164003,-0.07071481813054978,-0.1682357381601771,7.540329345144906e-05,-0.07978098712594413,0.42891398598681524,-0.0032379771458516684,-1.5959573021262103,-0.43702354767787277
14.354801893234253,0.7702111052855174,2.699409789634689,2.5028871819094505,-0.07226371373145517,-0.15954910735863476,1.1399024098504351e-05,-0.07510603707014159,0.43962240033447,-0.0031625564154751833,-1.6058842630803551,-0.49634804770724017
14.374801635742188,0.7679255943946884,2.6947483949396887,2.502883196139635,-0.07624287437485493,-0.14793936266055824,-0.00013621412611016605,-0.0690215976893098,0.45381014654623725,-0.0030809237937637845,-1.6270864797410025,-1.0601108330323683
14.394726753234863,0.7663729719117355,2.6918552512356273,2.502879239668308,-0.07801613117906497,-0.13972085135371867,-0.00022508140820828076,-0.060162822403954076,0.4521209459322821,-0.002997805926663063,-1.6330299696320452,-0.29717449455213263
14.414801359176636,0.7648011961013501,2.689151131608099,2.50287414397176,-0.07913266658097205,-0.13069768543681495,-0.00028421441144282206,-0.051527796245880365,0.4501487963729798,-0.002915655323558607,-1.6475247141530447,-0.7247372260499763
14.434771060943604,0.7631709068575399,2.686570811795675,2.50286124868198,-0.08102800083461723,-0.12300199090271403,-0.00049457848440684,-0.04215870617257767,0.4524079667674283,-0.002823553767696422,-1.65856173516733,-0.5518510507142693
14.454720973968506,0.7615425276962475,2.684201381554032,2.5028507984751207,-0.08177948443248365,-0.11393500858250534,-0.0005501396274128005,-0.03302940480730469,0.4542154663917135,-0.002732781416428412,-1.6720444921829338,-0.6741378507801876
14.47482967376709,0.7606964501492978,2.6830681389612385,2.502843543966942,-0.08272653722019464,-0.10984826697325686,-0.0006196057564140656,-0.016099745208958526,0.4535660952676538,-0.002641749145102363,-1.675572142805289,-0.17638253111775803
14.494751691818237,0.7573167712070282,2.679024385496139,2.502814427736334,-0.08478331782518005,-0.09218287881442885,-0.0007892588949302072,-0.013436424243894955,0.4312198644932098,-0.0025438171320614636,-1.706988069341187,-1.5707963267948966
14.51481318473816,0.7556185955412515,2.6772655065121507,2.5027981402416977,-0.0850253431729157,-0.08377788478971605,-0.0008391695973016817,-0.010764758050593102,0.40936021969679837,-0.0024475255190427175,-1.7239495549422448,-0.8480742800528906
14.534708261489868,0.7547436718120436,2.6764592949653983,2.5027791386346716,-0.08562895957925666,-0.07928683119448304,-0.001169138119895949,0.008999717545763551,0.41392475352636,-0.0023345952059327514,-1.7275419503611267,-0.17961977094409498
14.554710388183594,0.7530341752344187,2.674956621178414,2.502755296371266,-0.08525714355276727,-0.07096709038209682,-0.0012147191547445253,0.028066243315748196,0.4179620009395741,-0.0022238750903046636,-1.7486013093455588,-1.052967949221606
14.574728727340698,0.7521614066700194,2.674306171792579,2.502734047396597,-0.0853675256891444,-0.06558848815581364,-0.0014815622068767647,0.05608304214663831,0.43355560072143695,-0.0021014292626505143,-1.7520459569254516,-0.17223237899464117
14.594755411148071,0.749575832277222,2.672546120431446,2.5026823077187577,-0.08488763816117482,-0.052207473169393774,-0.001714553938471515,0.0870261083097835,0.4430218655643693,-0.0019689994396117506,-1.7834618834613496,-1.5707963267948966
14.614806652069092,0.7478974864835821,2.6715911647275283,2.5026476315186392,-0.08284786553343358,-0.043259317631182834,-0.0017526346352697497,0.11674906085561294,0.4516559315400861,-0.001839567538524464,-1.7995407634384504,-0.803943998855039
14.634852886199951,0.7470129466644917,2.671171729511008,2.502624303312233,-0.08305776403376247,-0.03883705049833005,-0.0016151445336447556,0.16674707892060042,0.47698971579576005,0.03842594374214028,-1.804771304373811,-0.2615270467680286
14.654820203781128,0.7453883725765791,2.670491996183188,2.502602289527136,-0.07923973475771837,-0.029057105055486445,-0.0004573701371252955,0.21472049482281305,0.500743242263941,0.07708541369262169,-1.8327261814458853,-1.3977438536037168
14.674789667129517,0.7436592645531723,2.669939886062629,2.50255278497842,-0.07990953771864469,-0.021110405244981402,-0.0005235763991022974,0.20244140319979498,0.48111491018683916,0.07301964647038069,-1.8424840727222167,-0.48789456381657104
14.694725036621094,0.7412280026557014,2.6694759630769056,2.5025229385686196,-0.07734411405990431,-0.0080644941269861,0.00039097520274006904,0.1941127305360088,0.46476744877901266,0.06910895744787442,-1.8738999992581147,-1.5707963267948966
14.714831829071045,0.7397193973996214,2.669406546092697,2.5025443238834963,-0.07354352627517878,0.00106891947041179,0.0017348356736626395,0.18597828570571498,0.44860455454600434,0.06529275811779292,-1.8808474859723554,-0.34737433571203624
14.73500370979309,0.7389335626664021,2.6694345772913426,2.502547463594793,-0.07331836751349176,0.00542917871187992,0.001869351583253838,0.17860538133733028,0.44183598443988326,0.06169061031105631,-1.885634554076956,-0.23935340523002502
14.754792928695679,0.7375024335384316,2.6696310701860595,2.5025969530077887,-0.0698185440952828,0.01419710718657104,0.00306787563940832,0.17140571395083123,0.4349349444099896,0.05817637231518551,-1.8983404214471835,-0.6352933685113804
14.77481722831726,0.7361611816355448,2.6700658389783274,2.5026650726138167,-0.06567990326973977,0.024697696576336855,0.004088362232136988,0.17097122055281191,0.4525149772037804,0.05480119705227899,-1.8877215180430271,0.5309451702078194
14.79471731185913,0.734315947365942,2.6710436165379314,2.5028052733235127,-0.059156574333765956,0.03928980860318863,0.005480852125388338,0.17218541638056967,0.4699186706634684,0.05150950148009995,-1.8572331900257733,1.5244164008626937
14.814833641052246,0.7331673244518626,2.6719245029565797,2.5029249769509954,-0.055702298795609326,0.04885326957121241,0.006478813313540994,0.17321095144713228,0.48624978853823936,0.04830029450444432,-1.8394136817318851,0.890975414694406
14.834770679473877,0.73214915630534,2.672980148526066,2.5029387084357944,-0.050893049114458605,0.05806290966443217,0.003719162231147739,0.15784516530627898,0.5041808790261755,0.04545445420120902,-1.8079977551959872,1.5707963267948966
14.854711771011353,0.7311618605096629,2.674243377685686,2.5030219964035605,-0.047886382289648755,0.06831574295210965,0.00460038507197452,0.14288954830810002,0.5209021412919309,0.042679599969631256,-1.7765818286600892,1.5707963267948966
14.874773263931274,0.7307270047525668,2.6748968335015557,2.5028962030708044,-0.04575112054467708,0.07214558256981048,-3.935930783869346e-06,0.09680189075314827,0.5502598669062114,0.04036324580411391,-1.7451659021241912,1.5707963267948966
14.89474868774414,0.7294875216522774,2.6772263086755026,2.5027699560258716,-0.040604543323195845,0.08671000790243955,-0.0027555089505850823,0.04358425770889259,0.6025538000611517,0.0383454552178763,-1.7137499755882932,1.5707963267948966
14.914791822433472,0.7286807005004885,2.679084360024353,2.502722382811722,-0.04024826113086568,0.09925973649020822,-0.0020083791091155493,-0.007622915590346137,0.6519373180489816,0.03637545377666918,-1.6823340490523953,1.5707963267948966
14.934691429138184,0.7281133916193229,2.68103812495827,2.5025957426665437,-0.034216548718207423,0.10824458500084778,-0.003528165854712107,-0.017579225382079285,0.6729630169934574,0.034619856553301395,-1.6509181225164973,1.5707963267948966
14.954817771911621,0.7274248964202161,2.683338931779749,2.5025319883372736,-0.03466513501850481,0.12190091332183525,-0.002852982164401996,-0.027228412123555295,0.6924082363323617,0.03290532210937099,-1.6195021959805993,1.5707963267948966
14.974784135818481,0.7272705376660056,2.6844563144215914,2.5024352568998967,-0.0294413278936288,0.1249084173685712,-0.004613582913977064,-0.02188271114803851,0.6837508819084471,0.03140425892962303,-1.5880862694447013,1.5707963267948966
14.994678735733032,0.7265242272676267,2.6883971002305955,2.502207985255091,-0.02602107094873382,0.1421482239755452,-0.0066183999808619035,-0.018286014950138537,0.6668073412992155,0.030115311019607995,-1.5566703429088034,1.5707963267948966
15.0147864818573,0.7260003822670893,2.691372298343201,2.5020815557982377,-0.026351849878430384,0.15531522477095783,-0.006028748294917755,-0.014812218398006003,0.6498985993528332,0.028854529358056356,-1.5252544163729054,1.5707963267948966
15.034765243530273,0.72558032662128,2.6945488175846877,2.5018465301857518,-0.024155843071325372,0.16683237314155927,-0.008293026991532169,-0.017312092158845105,0.6152111877820339,0.027815765364337386,-1.4938384898370074,1.5707963267948966
15.054978609085083,0.7250935864292191,2.6980062288889624,2.5016861646086976,-0.024526126476614677,0.1787954027347592,-0.007746922642016713,-0.01969721267943406,0.5812047128244826,0.026798183678365152,-1.4624225633011094,1.5707963267948966
15.074734687805176,0.7248775385036376,2.6998733294800252,2.5015944423309775,-0.023412677600952496,0.18640935071886663,-0.007451417181920556,0.03828138898535588,0.6137028948319482,0.07194401333601957,-1.4310066367652114,1.5707963267948966
15.094727277755737,0.7241817807129372,2.705825370409792,2.501401778941027,-0.022627432737054254,0.20698890942583878,-0.005379120148152449,0.046837653565129,0.5980756188538388,0.0684895839098569,-1.3995907102293135,1.5707963267948966
15.11478328704834,0.7237391537920826,2.710083719212001,2.50130766817348,-0.02160781759730864,0.21879370144065408,-0.004043204144370126,0.055070244898765046,0.5823948489492534,0.06511530931788766,-1.3681747836934155,1.5707963267948966
15.138506650924683,0.7232606043311613,2.7146747093923236,2.5012925044267185,-0.022022615350861283,0.23274743919778138,-0.0013087494116088673,0.048434017630981006,0.5627450376421536,0.06176313063463001,-1.3367588571575175,1.5707963267948966
15.154916048049927,0.7228294096168669,2.7194409045896015,2.5012784625820403,-0.021118097931717705,0.2438070737981517,-0.00010634295610801776,0.04206141181184782,0.5432430093673097,0.05849074726805977,-1.3053429306216195,1.5707963267948966
15.174818277359009,0.722586234821158,2.721975031872447,2.5013435135160083,-0.021663427761094912,0.2509535035995698,0.002277669958034117,0.03946048827096198,0.5114790820540278,0.05525564811273457,-1.2739270040857216,1.5707963267948966
15.194742918014526,0.7219377105714858,2.7298369735440127,2.5015052547235257,-0.02097709294517083,0.26904037274359205,0.005855666869038001,0.03396503850341043,0.479870471491195,0.05195798175617038,-1.2425110775498236,1.5707963267948966
15.214794635772705,0.7215246054138128,2.7353116778728084,2.501632543935172,-0.02035107154861375,0.2783266968296862,0.006862536504615627,0.028670383945210216,0.4488613850522102,0.04874263035352314,-1.2110951510139256,1.5707963267948966
15.23474645614624,0.7211088160740413,2.741164119322393,2.501878565141147,-0.020255029319221365,0.2921161769866477,0.01027901579989166,0.012072974699696419,0.4240686543059627,0.04549309851136129,-1.1796792244780276,1.5707963267948966
15.254799604415894,0.7207050594417975,2.747089624163516,2.5020930316292014,-0.020173572621306417,0.30035302429068156,0.01115708001597723,-0.003808792380200923,0.39968374326417583,0.04232718707678203,-1.1482632979421297,1.5707963267948966
15.274771690368652,0.7205045905277656,2.7502596824865684,2.5022701522237702,-0.02032543850767852,0.308402905859031,0.013359646066839058,-0.025241999668691735,0.38799880850909796,0.0392049432056111,-1.116847371406232,1.5707963267948966
15.294770956039429,0.7199157063681517,2.7598293800625644,2.5027501535337655,-0.020150900905324832,0.3241320699583614,0.016258528860408298,-0.027910988202448653,0.39822685758660886,0.03604701736037169,-1.0854314448703342,1.5707963267948966
15.314793586730957,0.7195069467876466,2.766392288347215,2.5030823272379084,-0.020732718927762888,0.33218883649729725,0.016948598172769645,-0.030209631267311427,0.40725055085609674,0.032973987960948845,-1.0540155183344364,1.5707963267948966
15.334815502166748,0.7191347587920526,2.773238160241248,2.5035131994893516,-0.01998560180647521,0.3430172965322196,0.019693803395017605,-0.007733133175413387,0.3993730633788731,0.029899504632580506,-1.0225995917985387,1.5707963267948966
15.354899406433105,0.718734971786288,2.780177825497262,2.5039128547496303,-0.019919960326169633,0.35092096759086533,0.020261757731402357,0.014208467066879078,0.3908947967411709,0.026910018961909688,-0.9911836652626409,1.5707963267948966
15.374774932861328,0.7183312214043389,2.7873116631198367,2.5044002964351244,-0.0193768549092779,0.35969803770465564,0.022669969468171104,0.09598845294043136,0.39921326212710756,0.023935327705508904,-0.9597677387267431,1.5707963267948966
15.394736528396606,0.7179181734240051,2.794594114361608,2.504884062811811,-0.018331656259913388,0.36813627124611614,0.023972067112976624,0.1868041542535429,0.422196196691814,0.021018014813374255,-0.9283518121908454,1.5707963267948966
15.414806127548218,0.7175947881384308,2.8020427088861255,2.505367517477609,-0.01371529326853847,0.37679298286154755,0.024363955204451483,0.2742785149870181,0.4431372058402034,0.018184720751591294,-0.8969358856549476,1.5707963267948966
15.434839963912964,0.717064279837433,2.8096409893173453,2.5059202562765774,-0.015911834921958478,0.3850930359627955,0.026227656509972958,0.3424070900821834,0.47445742949311365,0.015391640381159706,-0.8655199591190499,1.5707963267948966
15.454895496368408,0.7168189361490844,2.81743971119146,2.5064477056685743,-0.008404112025478808,0.394875678481,0.026508247936744268,0.4079341662822648,0.5034161157630623,0.012681199227865694,-0.8341040325831521,1.5707963267948966
15.474849224090576,0.7164565996096921,2.8213451086631474,2.50674963709762,-0.012872744475460806,0.39808438552936226,0.027639997065598016,0.4014285457397253,0.5273406096027472,0.010059327313154514,-0.8026881060472544,1.5707963267948966
15.494674444198608,0.7159599874805251,2.8333999281427884,2.507618088687688,-0.00891148073916283,0.4101503334839045,0.028905912724147602,0.3988177530159284,0.5085947695182894,0.0074664829032383435,-0.7712721795113566,1.5707963267948966
15.514771699905396,0.7158613456466237,2.84170340378816,2.508197531385815,-0.0009615193596196972,0.4201347290839295,0.029029980747861422,0.3961727545340815,0.4898442219229489,0.00495356574700029,-0.7398562529754589,1.5707963267948966
15.534894466400146,0.7156880787165403,2.850058055088841,2.508825558915068,0.001636203215775314,0.4262969732666194,0.030246005094776766,0.4001615148905876,0.4624643380359071,0.0025037250458018255,-0.7084403264395611,1.5707963267948966
15.55477261543274,0.7158010893231833,2.8586746767186515,2.5094308203306173,0.009677376254887677,0.4352748979121671,0.0302722293394981,0.40391720979849816,0.4353767846203713,0.00013157413144419334,-0.6770243999036634,1.5707963267948966
15.574810028076172,0.7158698944199859,2.8630259056797853,2.509758047890681,0.012345511955561984,0.43889176546463593,0.03094211264282501,0.3919342870699941,0.4151461018702441,-0.0021406161081325595,-0.6456084733677656,1.5707963267948966
15.594723224639893,0.7164062896097988,2.87641750272498,2.510706013891564,0.023740280274318,0.4523112156799233,0.03144064683303578,0.3758466447252379,0.39579030512426927,-0.0043560591548397415,-0.6141925468318679,1.5707963267948966
15.61473822593689,0.7169552118829223,2.885541601483251,2.511333811599838,0.031099642681251417,0.4600345921630006,0.031331984101333366,0.3601552622885612,0.3765699098066078,-0.006498041204359242,-0.5827766202959701,1.5707963267948966
15.634753465652466,0.7176818520224001,2.894884820988982,2.5119841848322277,0.03912049287845002,0.46908173096673955,0.03179419602265273,0.3440514098995159,0.35609431263104147,-0.008549412801974557,-0.5513606937600724,1.5707963267948966
15.654755592346191,0.7185320202308941,2.904336319618657,2.5126182256301037,0.045844090050909225,0.4760005587288534,0.03160328001933208,0.32837994920581925,0.3358223146438544,-0.010530550137317832,-0.5199447672241746,1.5707963267948966
15.674726486206055,0.7190674750444729,2.9091562034038922,2.5129465964272057,0.05079537006864492,0.4803337211316476,0.03184162225446962,0.3145287921806811,0.30680876834119375,-0.012405392703733822,-0.48852884068827684,1.5707963267948966
15.694809198379517,0.7201453818023558,2.918822333297064,2.513580826131669,0.05695026744601383,0.4861844176098162,0.03157532018169975,0.3010172505845238,0.278353512546427,-0.01421380882815771,-0.4571129141523791,1.5707963267948966
15.71479320526123,0.7214991078717834,2.928708772682197,2.514224620534245,0.06667262879691332,0.49432594636361105,0.03164536092122569,0.2712618944340845,0.2539920949653051,-0.015924979650857648,-0.42569698761648134,1.5707963267948966
15.734769582748413,0.7237492636599449,2.943749197494408,2.515172722837344,0.07832079917184931,0.5048053950814153,0.03131613704954559,0.24887610428083867,0.26586299706002314,-0.017556356763135737,-0.3942810610805836,1.5707963267948966
15.7547607421875,0.725364006207393,2.953899211585871,2.515795428615242,0.08308174624074557,0.5102317379732872,0.030949206925077462,0.22736311347943175,0.27658044935376974,-0.01912651359767442,-0.42569698761648134,-1.5707963267948966
15.774781465530396,0.726340421392664,2.9590859629461557,2.5161074399916967,0.08895457913973012,0.5149404511629413,0.030841303076223944,0.19951391656646814,0.2787267172209444,-0.020590797264499666,-0.3942810610805836,1.5707963267948966
15.795401096343994,0.7292484609658652,2.9746734404943074,2.5169398268240486,0.09878767976521943,0.5234208070166413,0.02749283036419453,0.14857057024817885,0.25488814910833,-0.021793741479401024,-0.42569698761648134,-1.5707963267948966
15.814780950546265,0.7312506349970419,2.9851912583949303,2.517485246976582,0.10126673656206173,0.5282824120943501,0.027045340779364182,0.09967410244933221,0.23131685363734475,-0.02294698463876633,-0.3975356384530824,1.4080674581699482
15.834737539291382,0.733548068043027,2.995807929629447,2.5177968645455975,0.10936213665269759,0.5329840849160079,0.020626323026569682,0.05704358945029669,0.21644805757853014,-0.023620652204538312,-0.4289515649889801,-1.5707963267948966
15.854771852493286,0.7357439680551848,3.0065099073829256,2.5182046236594693,0.11009179180022365,0.5371639756220433,0.020147455596129696,0.016221373692169225,0.20153366488240657,-0.02426048884350696,-0.3994649271770676,1.474331890595626
15.874734163284302,0.7370450370044016,3.011922147652873,2.5182897982132193,0.11554125581718237,0.540210761610156,0.016725053332082976,-0.031214016955784123,0.21913505052550108,-0.024634946635238537,-0.43088085371296536,-1.5707963267948966
15.894665479660034,0.7407297463833032,3.02825711703441,2.5187016586648965,0.120985732652593,0.5475769225158953,0.013751349952523834,-0.06069899567789539,0.22033486635766364,-0.024815150088603327,-0.40377329626411296,1.3553778724426202
15.914835929870605,0.743135416358564,3.0392527744842965,2.5189717115639487,0.11948702705068341,0.5519909616382115,0.013253402054600277,-0.08897059450165762,0.2209767554787466,-0.024976524026470798,-0.4351892228000107,-1.5707963267948966
