t,x,y,z,vx,vy,vz,ax,ay,az,yaw,yaw_dot
3.5025086402893066,4.472450088027009e-09,-7.852779029352052e-10,2.0080002569341837,6.696791626222147e-07,-1.1793613639579687e-07,1.0521117353844991e-05,6.673042929186835e-05,-1.1822467382463786e-05,0.0010997486575582902,-0.031415926535897754,-1.5707963267948966
3.522533893585205,3.5589757644744944e-08,-6.305277059213625e-09,2.008000759912002,2.6597543220634513e-06,-4.740455553700913e-07,4.339512951911668e-05,0.00013204143114204433,-2.3816963775658554e-05,0.0021852890729557035,-0.06283185307179551,-1.5707963267948966
3.542510986328125,3.0952366851965864e-08,-5.3333731832552575e-09,2.007985112412157,3.297499563148861e-06,-5.588664987468941e-07,-0.0004977493532298866,0.00019657597600399252,-3.198720024393255e-05,0.003256021932277835,-0.031415926535897754,1.5707963267948966
3.5624423027038574,5.176222105994718e-08,-8.901905091194325e-09,2.0078834812064317,4.816925596683595e-06,-8.827953295258594e-07,-0.0029397447492649363,0.0002573741759264425,-5.257280749638089e-05,0.004342186445488815,-0.004855827535147128,1.3280049500375313
3.582597494125366,2.035606880288547e-07,-3.8447946907927784e-08,2.007825626445245,1.0561047185715033e-05,-2.140640035004031e-06,-0.002842158425972667,0.0003168121810141153,-7.322213228162158e-05,0.005414070387693611,-0.03627175407104488,-1.5707963267948966
3.602430582046509,1.6214024975790668e-07,-2.7651253515883764e-08,2.007599164661668,9.173527272019615e-06,-1.6846994330035447e-06,-0.007203688306499952,0.0003551719900122676,-5.902022500258466e-05,0.006466447761075538,-0.004855827535147128,1.5707963267948966
3.6225664615631104,4.1914428105670584e-07,-7.222807817062287e-08,2.0074564536451307,1.6650864427120163e-05,-2.7273473309587008e-06,-0.007063951961080798,0.0003923687307892199,-4.532945461754103e-05,0.007504864508033436,-0.03314536709171634,-1.4144769778284605
3.6425435543060303,3.8639761507489883e-07,-6.0441255875684e-08,2.0072899109301954,1.4140343061011284e-05,-2.3065598431376918e-06,-0.00973427854622905,0.0003561118638047568,-7.478220399266139e-05,0.008533994228742415,-0.00365549511068064,1.474493599051785
3.662400722503662,8.024696046570896e-07,-1.5133244503076947e-07,2.0069373976654803,1.8589955346183907e-05,-5.274023889818429e-06,-0.011212298506953303,0.00014615396601537684,-0.00021023444088666984,0.009539967894308457,-0.03507142164657839,-1.5707963267948966
3.6825220584869385,1.1896042089900877e-06,-3.078034181975509e-07,2.006715126076624,1.9430437188224213e-05,-1.0818814461279217e-05,-0.011011552256016638,-6.17664540187935e-05,-0.00034395686066399463,0.01053240553154503,-0.01427799077564762,1.0396715435465387
3.7023699283599854,1.7526700008114747e-06,-3.9889068998403354e-07,2.0064437099437606,2.204735518594413e-05,-1.357898614921963e-05,-0.012070827526711883,-0.00035263749046598796,-0.0005319043853707626,0.011522054333515143,-0.03861425015948994,-1.216812969192116
3.7226498126983643,2.1038610015800983e-06,-7.892569583496735e-07,2.0062046631072503,1.2113024037169982e-05,-2.6075859188618252e-05,-0.011830602166336307,-0.0006402538871263534,-0.0007173700988500357,0.012498242592481014,-0.029444226022464548,0.4585012068512695
3.742521286010742,2.6282871563887092e-06,-6.346814598757207e-07,2.0060735998660393,8.421024052465663e-07,-1.185619277692936e-05,-0.012101436256314454,-0.0028227495842551307,0.0003026616435254827,0.013251329686030763,-0.01738437403088744,0.6029925995788554
3.7624735832214355,1.936518751952927e-06,-7.439450807369852e-07,2.00583427106216,-7.719803524901652e-05,4.285014251145976e-06,-0.011828970520024025,-0.004976479172949453,0.0013092176151624322,0.013993413939443323,0.013564559821861,1.547446692637422
3.7825212478637695,3.012409573778868e-06,-6.586181884695874e-07,2.0057157575122613,-8.128304729069695e-05,2.3018568655058377e-05,-0.011648738141897028,-0.007187093975516612,0.002365735420708991,0.014695850513898972,0.04498048635775875,1.5707963267948966
3.8024613857269287,3.889230429662923e-06,-1.5932886876995075e-06,2.0052469160226796,-0.00011896579705588695,1.8531604988551077e-05,-0.01172152494744063,-0.0073403003535027255,0.0021267416969946193,0.015572728791902175,0.020846286661262425,-1.2067099848248164
3.822645425796509,3.1746552810352936e-08,-8.130971827367547e-07,2.005015657909205,-0.0002672862210909753,5.870049339835071e-05,-0.011401404706027289,-0.0074913895676393125,0.0018906258813937912,0.016437237792199553,0.05226221319716018,1.5707963267948966
3.8425588607788086,2.8932484022993666e-06,-2.463409680151901e-06,2.0048436388617064,-0.00017837789523760287,1.1052156582683316e-05,-0.012798349891808622,-0.007669117809491112,0.0016577096426479568,0.017324282827510185,0.020846286661262425,-1.5707963267948966
3.862356424331665,-1.828549025917979e-06,-2.3102241513695715e-06,2.004448960421198,-0.00029640919397975134,3.635377527289298e-05,-0.012817472661583191,-0.007685053109968244,0.0015784926927213882,0.018224097499201966,0.05226221319716018,1.5707963267948966
3.8825631141662598,-9.294792783137509e-06,-1.2726973602747814e-06,2.0041963151275164,-0.0004502674247317762,6.713710515237677e-05,-0.012444100473944238,-0.00770072595297035,0.0014999530638076404,0.01911096814586891,0.08367813973305793,1.5707963267948966
3.9023630619049072,-1.7116809706000132e-05,6.449405511878662e-07,2.0038887072754896,-0.0005418303701735628,0.00010644652312534888,-0.013415089728646266,-0.007532311825046382,0.0014707275712486834,0.019990252790905074,0.0662043042870546,-0.8736917723001669
3.9229488372802734,-2.944876131472478e-05,3.0660662999334904e-06,2.0036244615070777,-0.0006908107006405021,0.00013556851011573703,-0.013006599031792191,-0.007366084583721399,0.0014414651099248518,0.020856677860341313,0.09762023082295235,1.5707963267948966
3.9425230026245117,-3.649492990525557e-05,5.060716163980583e-06,2.0034988479325655,-0.0007567611604151293,0.00016550231603383207,-0.012675101060348153,-0.007041641474263805,0.0013885398088708163,0.021697542346710376,0.10226168278951331,0.23207259832804805
3.9631054401397705,-6.311646931185992e-05,1.0974235512199073e-05,2.003146935313507,-0.0010107908664422954,0.00020674025952724091,-0.011432460132954018,-0.00954634493145405,0.00025864779538408854,0.021572442610328865,0.13367760932541106,1.5707963267948966
3.982451915740967,-8.540679001460272e-05,1.5086152583324818e-05,2.002922592262117,-0.0012264738917000845,0.00020073234575338546,-0.011002261822445177,-0.0120161536631682,-0.0008570836722997863,0.021447397718111265,0.12455965999482288,-0.4558974665294091
4.002397298812866,-0.0001103169860902887,2.061219224662733e-05,2.002760248181357,-0.0014034142053215002,0.00022540691108491117,-0.00923535854931893,-0.01236288658536184,-0.0017115811498055362,0.02131101108761167,0.15597558653072063,1.5707963267948966
4.022510290145874,-0.0001408806926055134,2.4721605064742195e-05,2.00257979412951,-0.0016540942019047634,0.00018272318045905772,-0.008810500632816196,-0.0127042135985912,-0.002554938962098238,0.021174811896589336,0.17721828606391332,1.0621349766596344
4.042534828186035,-0.00015413322743190955,2.9240187115482767e-05,2.002529987951594,-0.0016677730535063716,0.0002371151145985074,-0.007522506032842398,-0.012303482138719629,-0.002741362371693532,0.021912966446515584,0.20863421259981108,1.5707963267948966
4.062533855438232,-0.00018992288911420246,3.3421904840025136e-05,2.0023839690739385,-0.0019098719744948332,0.0001804429852731947,-0.007076958569660275,-0.011907139721075854,-0.002925464272395499,0.022639916083597333,0.17721828606391332,-1.5707963267948966
4.082504749298096,-0.0002273753752484896,4.176326925493783e-05,2.0022999871388603,-0.0020793842645305434,0.00024920420377296947,-0.0053451131278627745,-0.01162227903154604,-0.0032349029587409395,0.023351348667887316,0.20863421259981108,1.5707963267948966
4.10235595703125,-0.00029352667223753794,5.000495837515491e-05,2.0021471156593895,-0.0024468565525446176,0.00021970885102518166,-0.004953193065036912,-0.011503686753208415,-0.003583821613581313,0.024172295486562127,0.24005013913570883,1.5707963267948966
4.122470140457153,-0.0003447566744438851,5.365934751858396e-05,2.002052940358774,-0.00267575102104539,0.00014458283863133848,-0.0044616423640282754,-0.011385892523499393,-0.003927989323940159,0.024980686067317553,0.2714660656716066,1.5707963267948966
4.142486572265625,-0.0003743255899062863,5.6575836622631185e-05,2.002011895811888,-0.0028548390130299912,0.000146283746899863,-0.004093390928304137,-0.011415618286582486,-0.0045767816158543,0.02579424916103671,0.30288199220750434,1.5707963267948966
4.162488698959351,-0.0004337074013786825,5.854334799604724e-05,2.001935240453588,-0.0030834362775551583,4.8334438287257624e-05,-0.0035694748088538884,-0.01144386135045214,-0.005216667852052887,0.02659527784354989,0.3342979187434021,1.5707963267948966
4.1825456619262695,-0.0005010820370230679,6.129142642989322e-05,2.0018742910734,-0.0033960395924544627,1.122083986087282e-05,-0.002922777511790379,-0.01152741136361585,-0.005840406764181488,0.027350435596608633,0.36571384527929984,1.5707963267948966
4.202495574951172,-0.0006097321958509438,6.141635762038282e-05,2.001800623861428,-0.003788544759461289,-8.87741417033643e-05,-0.0020254005514800904,-0.01180877161275048,-0.005101548216596771,0.027057417925109985,0.3971297718151976,1.5707963267948966
4.222666263580322,-0.0006878833140725359,5.8669464421175443e-05,2.0017655078783707,-0.004027485698566492,-0.00018347616825478694,-0.0014871692217465913,-0.01208436277099679,-0.0043698447948951535,0.02676597763234567,0.42854569835109535,1.5707963267948966
4.242541551589966,-0.0007300660747473228,5.803150553312146e-05,2.0017689719234135,-0.004189522616820472,-0.00018761385085162884,-0.0007132530963317589,-0.012589548577817319,-0.004063931703085915,0.026473957389368825,0.4599616248869931,1.5707963267948966
4.262421607971191,-0.0008164077244775464,5.3486686930240374e-05,2.0017599822647174,-0.004446300231105964,-0.00026585825746879753,-0.00018668085788377072,-0.013086911550057586,-0.0037610059297170204,0.02618353193234539,0.42854569835109535,-1.5707963267948966
4.282383918762207,-0.0009573826263092469,4.1285098973378276e-05,2.001795565014751,-0.004886446033036796,-0.0004595704103275224,0.0008120068612081999,-0.014550075750126094,-0.005728768806718949,0.026929996002372433,0.3971297718151976,-1.5707963267948966
4.302442789077759,-0.0010581180604745618,3.081808739686412e-05,2.0018172403246517,-0.005191904908257467,-0.0005936010346928559,0.0013579729773592782,-0.015992334587488027,-0.007669856817082872,0.027664651321447704,0.36571384527929984,-1.5707963267948966
4.322495222091675,-0.0011102646301773046,2.391778716336524e-05,2.0014716523612317,-0.0053404334276535795,-0.0006983397559718913,-0.009909266346374372,-0.01705808636922242,-0.009679781714509452,0.0274225104933485,0.3342979187434021,-1.5707963267948966
4.342776298522949,-0.0012205551499159027,7.88244549355736e-06,2.0012789354446308,-0.0056921166699980975,-0.000911800561335148,-0.009363229053892867,-0.018107524646527616,-0.011661628722103358,0.027181388410061028,0.30288199220750434,-1.5707963267948966
4.362453937530518,-0.0013330695460290897,-6.070974862778417e-06,2.0003065950466064,-0.005938824748747342,-0.0009849222833631568,-0.025633136489985376,-0.019100935596781228,-0.013650534039535825,0.028729825268795136,0.2714660656716066,-1.5707963267948966
4.382390737533569,-0.0015167141999734687,-3.4971500597845363e-05,1.9999177866563276,-0.006438442452503898,-0.0012168871647059306,-0.013421338908821434,-0.02109429584944879,-0.015857939767827227,0.028493893158465816,0.24005013913570883,-1.5707963267948966
4.402524709701538,-0.0016498333301589443,-6.262636883783062e-05,1.9996550429730475,-0.006880017241471234,-0.0015558495164724258,-0.012853812855254077,-0.02305830048599469,-0.01803289922785915,0.02825886231628004,0.20863421259981108,-1.5707963267948966
4.422532558441162,-0.0017837930435674468,-8.601160351449322e-05,1.9998919174930336,-0.00711814045353899,-0.0016571935631430454,-0.0019077529754472611,-0.02291963448401741,-0.021519428851752613,0.027948844644867257,0.17721828606391332,-1.5707963267948966
4.442455530166626,-0.0019307303722201881,-0.0001236893099446628,1.9998593316204103,-0.007575119341432736,-0.0021220332139403864,-0.0013518619609157385,-0.022777713777944627,-0.024956272530343975,0.027640542353956715,0.14580235952801557,-1.5707963267948966
4.4624645709991455,-0.002000138357187056,-0.00013700143153886577,1.9996721748447086,-0.007611241336322361,-0.002125566373201099,-0.006678096110086608,-0.02509771722806602,-0.02688240286232107,0.027375688166729722,0.11438643299211781,-1.5707963267948966
4.482425928115845,-0.002233526389604944,-0.00020104863611185094,1.9991341075620155,-0.00820172654522771,-0.002601356112371062,-0.015931490430968816,-0.026828629888774446,-0.0272283177104962,0.029121743115538487,0.08297050645622006,-1.5707963267948966
4.502609729766846,-0.0024030406707197705,-0.00025854408039251175,1.9988214172563117,-0.008755380000710451,-0.0031493145489261847,-0.015331803201466465,-0.028532162214200244,-0.027566188291357086,0.030842826157607223,0.05155457992032231,-1.5707963267948966
4.522481441497803,-0.002577139985418059,-0.0003152996543195675,1.9980574119804149,-0.009174616578293819,-0.003433858134232835,-0.025756004703792877,-0.0298852120266222,-0.02856649990048895,0.03150668502543512,0.020138653384424554,-1.5707963267948966
4.542600154876709,-0.0027666985159675267,-0.0003897560016123428,1.997548636949268,-0.00978567689959319,-0.004015057477464583,-0.025119320951260564,-0.03121734033922475,-0.029550765750688185,0.03215992359711432,-0.0112772731514732,-1.5707963267948966
4.562505722045898,-0.002862870498233097,-0.00042823484050367425,1.9971767283544555,-0.010005912442204267,-0.0042364631406117265,-0.027955798100269783,-0.03096066698251867,-0.030750709140176108,0.032958406699820794,-0.04269319968737095,-1.5707963267948966
4.582355499267578,-0.0031741483012380596,-0.0005670934527476675,1.9963632197974728,-0.010855964372969927,-0.005102777742871393,-0.02647267378474237,-0.03071371079983949,-0.030826126867366216,0.03365343982797682,-0.0741091262232687,-1.5707963267948966
4.6025004386901855,-0.0033973938711319455,-0.0006753190585198759,1.9958405427817107,-0.011467769697119334,-0.005720020748509745,-0.025792748565401286,-0.030466835009095458,-0.030897501435176656,0.03433720840433482,-0.10552505275916646,-1.5707963267948966
4.6225221157073975,-0.003512628532378168,-0.000733609844146008,1.9956630635684476,-0.01174342069771121,-0.0060175554979833385,-0.023120121012758087,-0.02984385868978919,-0.03064322772040315,0.03503132512443858,-0.1369409792950642,-1.5707963267948966
4.642499923706055,-0.0037534244527520177,-0.0008600726760628562,1.9952077131114654,-0.012334112503764025,-0.006627881980946584,-0.022412649354897923,-0.02922620753531909,-0.03038951389472083,0.035713925072952755,-0.16835690583096197,-1.5707963267948966
4.6624836921691895,-0.004008531118155553,-0.001001162872527634,1.9949193280497048,-0.012992275171870685,-0.007306236886740302,-0.01782792556092698,-0.029093461560271042,-0.030468627075065646,0.03538533359461513,-0.19977283236685972,-1.5707963267948966
4.682410717010498,-0.004415339195246594,-0.0012376853989168044,1.994511507828645,-0.013974290484113316,-0.008321746012192448,-0.01356481349674908,-0.028419938269418032,-0.029918617491652647,0.03601886906349596,-0.23118875890275747,-1.5707963267948966
4.7025065422058105,-0.004700464413695295,-0.0014100676029726732,1.9942474570120678,-0.014536007781265178,-0.008914656195200234,-0.012838193431900275,-0.027752863958460546,-0.029373157762212374,0.036641288540702616,-0.2626046854386552,-1.5707963267948966
4.722491502761841,-0.004852214889471018,-0.001505552965369985,1.9942421489582158,-0.014970500798300847,-0.009337229140186568,-0.008990862214302677,-0.02932998444394831,-0.027810350289964814,0.03697108663339924,-0.294020611974553,-1.5707963267948966
4.742427587509155,-0.005157594860341028,-0.0016977563148789464,1.9940697475384928,-0.015572674510855207,-0.009877955342079484,-0.008248205702397595,-0.030883452671016137,-0.026265208577994706,0.03729330388635953,-0.32543653851045073,-1.5707963267948966
4.762524366378784,-0.005481515847354842,-0.0019119528763074545,1.9941017761212054,-0.016332871073345547,-0.01069724003153196,-0.00276013489813482,-0.03067084431278168,-0.02621864961041602,0.03768599713122651,-0.3568524650463485,-1.5707963267948966
4.78238582611084,-0.005987091476887943,-0.002253432092631765,1.9941553822458915,-0.0173133155479236,-0.01172600677596759,0.001769932449300516,-0.03180563969998671,-0.02544817656794572,0.037748924552780394,-0.38826839158224624,-1.5707963267948966
4.802518367767334,-0.006339793657549924,-0.0024929908521513795,1.9941983346573178,-0.017960624453476595,-0.012227324492472706,0.002525503951978885,-0.032922221510920606,-0.02468477113514935,0.03780750249768482,-0.419684318118144,-1.5707963267948966
4.822481632232666,-0.0065224384373006004,-0.0026244175589368148,1.9943365293078699,-0.018349021498318168,-0.012684762057627266,0.006051803920165032,-0.03542647965985492,-0.022974052383178917,0.037486575647316535,-0.45110024465404175,-1.5707963267948966
4.842604160308838,-0.006896669248392195,-0.0028825945636782742,1.9944650413470335,-0.019082282852918055,-0.013127302720518758,0.00679833295659441,-0.03789345485978636,-0.021283342307660703,0.03716646376242841,-0.4825161711899395,-1.5707963267948966
4.862518310546875,-0.007283480187727485,-0.0031626855988057,1.9947595274217338,-0.019767264858398904,-0.013882869171915271,0.011286924117181078,-0.037756527662599945,-0.020509508322868533,0.03778380224894112,-0.5139320977258377,-1.5707963267948966
4.882389783859253,-0.007890660064276533,-0.0035976705167250042,1.9952017977918899,-0.020824049668604596,-0.014762759521479074,0.014878578492257693,-0.037888458799591684,-0.020694999905695483,0.03809934265872422,-0.5453480242617355,-1.5707963267948966
4.902482271194458,-0.008314727286943364,-0.003897076813178711,1.9955070098734533,-0.021583095186603875,-0.015178471103684412,0.015643655291764876,-0.03801523570607246,-0.020875294276209766,0.038407031517354556,-0.5767639507976332,-1.5707963267948966
4.922549724578857,-0.008531475094179501,-0.004057438442525789,1.9957427229878615,-0.021938261218406703,-0.015592306544196289,0.01822264680990587,-0.03792720068169774,-0.020191669377484227,0.03891182097729885,-0.608179877333531,-1.5707963267948966
4.942476749420166,-0.008977819798700553,-0.004373277673626537,1.9961149914160856,-0.022695909720404524,-0.015989360560316624,0.01900584367791632,-0.037837346774164206,-0.019514867293498106,0.039406121346150104,-0.6395958038694287,-1.5707963267948966
4.962437629699707,-0.009440882011771817,-0.004705398563787857,1.9966033898557924,-0.023516313564229435,-0.016581863349430463,0.022264123475567336,-0.03994687377366362,-0.01893810676259885,0.03872471426868826,-0.6629853459000432,-1.1694771015307248
4.982390642166138,-0.010165530771066788,-0.0052160391796955185,1.9973449189009183,-0.024767401749369436,-0.01728196444048781,0.025020059965469185,-0.0427684905872799,-0.018960867031592086,0.03803568831781823,-0.631569419364145,1.5707963267948966
5.002485752105713,-0.010669618442040014,-0.005565472121349425,1.9978528815660601,-0.025650626159793053,-0.017661403065137343,0.025773927336557097,-0.04554673715396598,-0.01898286911025798,0.03735192438252098,-0.6441612382601312,-0.6295909447993076
5.022510290145874,-0.010926908953191174,-0.005746460806366144,1.9981045386058585,-0.026072005820157184,-0.017937534493780466,0.025471467003031305,-0.04740895541851234,-0.017974329345820387,0.03668408199049633,-0.6352175421186272,0.44718480707519603
5.042489528656006,-0.01145416865021693,-0.0061104137439413056,1.9985569586477552,-0.026901701621041378,-0.018356902658619504,0.02407732639830076,-0.04802340536669736,-0.018733703001425996,0.03706646890874518,-0.666633468654525,-1.5707963267948966
5.062749147415161,-0.01227637777563767,-0.006671590556848738,1.9991947219066086,-0.028167209655897706,-0.018979604532030667,0.02238964880014054,-0.048665209327821674,-0.01951711336563245,0.03642577614349279,-0.6667806799700715,-0.007360565777325689
5.082685947418213,-0.012847128264642464,-0.0070554685197614705,1.9996232363782154,-0.029083688875486135,-0.019400643606880073,0.022269066031827062,-0.05109490261149051,-0.022029998556473075,0.03579734245156135,-0.675281483085266,-0.4250401557597261
5.102573871612549,-0.013439180960739596,-0.007448053189050511,2.0000757355081333,-0.030129543694312547,-0.01986608445526678,0.022978767931975726,-0.053483793575272845,-0.024508340877366884,0.03517363381905325,-0.6594147489823814,0.7933367051442319
5.122304439544678,-0.014046957862532414,-0.007845658081851541,2.0005201668448644,-0.03107771576775988,-0.020238051294399116,0.023197414188662814,-0.05578890074073325,-0.02646177656004894,0.034560821904166664,-0.6881655487203782,-1.4375399868998384
5.14255428314209,-0.014679821695564556,-0.008255840299978931,2.00099098666992,-0.03221622221737649,-0.02078658921553165,0.023882541005582115,-0.05805530808400972,-0.02838738761809557,0.03395262827512329,-0.6567496221844804,1.5707963267948966
5.162567853927612,-0.015000204745511827,-0.00845784460094159,2.001227161481538,-0.03267710572545339,-0.020871947667321693,0.023979417979923028,-0.059812548477977,-0.029786562064889412,0.0333559324767198,-0.6881655487203782,-1.5707963267948966
5.182433366775513,-0.01566582497341428,-0.008881333096450077,2.00171338147326,-0.03389067154967157,-0.021481495935077262,0.024640607222913696,-0.061538896138477954,-0.031164778965896606,0.03276374141420421,-0.6567496221844804,1.5707963267948966
5.202575445175171,-0.01600109728528342,-0.00908837139355976,2.001956483633304,-0.03433002684154576,-0.021537558149534865,0.024847938073750093,-0.06321306811015909,-0.032238623658531404,0.03218197082169159,-0.6881655487203782,-1.5707963267948966
5.222355842590332,-0.01741407230364486,-0.00996203682141057,2.0029769655547676,-0.03661123765531761,-0.02250490042403194,0.026252530180372158,-0.06479609712029295,-0.03330060280725512,0.03160048775622211,-0.6567496221844804,1.5707963267948966
5.242519855499268,-0.01815936036998791,-0.010418864903641556,2.0035082977118606,-0.03792274970234921,-0.023181391400499927,0.026878762010240323,-0.06635031617986116,-0.03434568440145083,0.031023431920124883,-0.6881655487203782,-1.5707963267948966
5.262841463088989,-0.018537587264675442,-0.010645961307139852,2.0037906816601265,-0.038479565464994876,-0.02335184209322715,0.02757156053381952,-0.06784193070422165,-0.035268273781798865,0.03045310766063136,-0.6567496221844804,1.5707963267948966
5.282478094100952,-0.01971849786202697,-0.01135619935135211,2.0046514212627917,-0.04041565767441733,-0.02424246832606225,0.029051988953023303,-0.06933766004621231,-0.03618010404550454,0.029882324190355178,-0.6776679285000777,-1.0459153157798662
5.302572727203369,-0.02054077686238078,-0.011848344762182331,2.005238399674366,-0.04181713481874518,-0.024975061208391342,0.029643964246707448,-0.0708053993796081,-0.037076640537360296,0.02931593665258508,-0.6462520019641795,1.5707963267948966
5.322513580322266,-0.02138743638923784,-0.012347323398575277,2.0058810017479756,-0.04315112762351488,-0.02552728162135548,0.031352034155030135,-0.0722347955332421,-0.03793493316460841,0.02874890574919615,-0.6776679285000773,-1.5707963267948966
5.342529535293579,-0.022264999821194873,-0.012865512498133783,2.006513754630799,-0.044609888767551814,-0.026294440071201873,0.03192137872659214,-0.07363675610920438,-0.03877845520674816,0.028186285289863982,-0.6462520019641795,1.5707963267948966
5.362717866897583,-0.022712756771654755,-0.01312585630113805,2.0068568191917535,-0.04530192299420543,-0.026560954385311787,0.03284869963596518,-0.07497509337341825,-0.039501800986195344,0.02762862714361365,-0.6776679285000773,-1.5707963267948966
5.382416486740112,-0.02363387815329369,-0.013665023311547451,2.0075192819510304,-0.046814588386247635,-0.027358113797567585,0.033395731980456055,-0.0762870602353542,-0.04021194449469785,0.027075333548186344,-0.6462520019641795,1.5707963267948966
5.402499437332153,-0.02410351951549021,-0.013936481910949105,2.0078783279655945,-0.047524326590890675,-0.027650985582222662,0.03433184124662525,-0.07756102613537225,-0.040934666502289004,0.02652681242547137,-0.6776679285000773,-1.5707963267948966
5.422508478164673,-0.026063175227875404,-0.01507017048551548,2.009303443297599,-0.05055963738198612,-0.029172599323367347,0.036155035531775424,-0.07876062780445972,-0.041603358982078224,0.02597498935410528,-0.6462520019641795,1.5707963267948966
5.442610025405884,-0.027090198823504937,-0.015661987087410345,2.0100317024371073,-0.05214663750242903,-0.030011247474804246,0.036669053615877294,-0.0799352260529073,-0.04225934248486508,0.02542754817531822,-0.6776679285000773,-1.5707963267948966
5.462619304656982,-0.027615364543806357,-0.01596247517747693,2.010415376446675,-0.052949151780632614,-0.030392241542997474,0.037383579414554856,-0.08101483487065093,-0.0429680573034405,0.02488647772246347,-0.6462520019641795,1.5707963267948966
5.482438325881958,-0.029239975590912067,-0.016892058453314224,2.01156275701469,-0.05538106339489037,-0.031645593175507754,0.03853560763462943,-0.08208084366120473,-0.043752882524950944,0.024346779802412816,-0.6776679285000773,-1.5707963267948966
5.502535343170166,-0.030364082893300674,-0.01753377249838218,2.0123383027601482,-0.05703314015598806,-0.03252837966812046,0.03901718235598631,-0.08312283903043231,-0.04452338458292557,0.023811412997259442,-0.6462520019641795,1.5707963267948966
5.522410154342651,-0.031522364936845675,-0.018191882638187794,2.0131443894439203,-0.05872991835888092,-0.03339259492875446,0.04000493046379092,-0.08409043926240216,-0.045370309920951875,0.02328031278222194,-0.6776679285000773,-1.5707963267948966
5.54256010055542,-0.03271384474028248,-0.01886886429730635,2.0139491089237262,-0.060421210148220564,-0.03430834322206264,0.04046526148643906,-0.08503489000493716,-0.04620198268306724,0.022753503448144304,-0.6462520019641795,1.5707963267948966
5.562501668930054,-0.033323388403556836,-0.01921357636631978,2.014366084777761,-0.06131215482409528,-0.034757968748436535,0.041019000835665266,-0.08599082456113713,-0.046909526843634315,0.022233956405835142,-0.6776679285000773,-1.5707963267948966
5.582472801208496,-0.03520230591255459,-0.02027650496566739,2.015615641581595,-0.06392456741816069,-0.03614515546190769,0.04193002855220617,-0.08685413250598789,-0.047515051293556015,0.021717125162923876,-0.6462520019641795,1.5707963267948966
5.602636098861694,-0.03649822454868621,-0.021008950832630793,2.016458551333074,-0.06567010109351809,-0.037101408285198416,0.0423592378728573,-0.08769560368377581,-0.04810816740914757,0.02120450810046732,-0.6776679285000773,-1.5707963267948966
5.622414588928223,-0.03783152700247908,-0.02176039466268019,2.017322819034981,-0.06749113861784299,-0.03806545146193484,0.04308558776014412,-0.08855138387053897,-0.04871739968356048,0.02069771044917312,-0.6462520019641795,1.5707963267948966
5.642642259597778,-0.039199116002069115,-0.022531487156486438,2.0181886367536923,-0.0692705405504889,-0.03904578666108921,0.04349450864093476,-0.08938514831082991,-0.04931402330653357,0.02019506921367766,-0.6776679285000773,-1.5707963267948966
5.662513494491577,-0.03989810986769345,-0.02292479623843877,2.0186316044750643,-0.0702238084710872,-0.03955552951966191,0.0438948509192234,-0.09013908534215645,-0.04983087755010107,0.019700429492378012,-0.647335296945938,1.5166315777069617
5.682462215423584,-0.04132066307606748,-0.02372590688501702,2.0195134088072204,-0.07203395616074026,-0.040557219590412155,0.04428394708146536,-0.09087222522863404,-0.05033621405555609,0.019209864765921986,-0.6787512234818358,-1.5707963267948966
5.702459335327148,-0.0427817252938184,-0.02454763526594363,2.0204124865579387,-0.0739129198228939,-0.04158098714003238,0.04491455204130725,-0.09154890341679449,-0.05069388425806019,0.018725444747165965,-0.6500654970380007,1.434286322191758
5.7223570346832275,-0.045041950138913024,-0.025818580966194785,2.02177372809454,-0.07671221735784321,-0.04312476152024527,0.045628064916646685,-0.09218004472629633,-0.050911067787320366,0.018244530387522506,-0.6814814235738984,-1.5707963267948966
5.742562770843506,-0.04659467161770069,-0.02669127249456654,2.022689906438043,-0.07856197080495368,-0.04414508897887477,0.04598817971632269,-0.0927921313675504,-0.051120366959366025,0.017767614952255484,-0.6512017103276131,1.5139856623142656
5.76289176940918,-0.04738704069338338,-0.02713661042192212,2.0231577269217773,-0.07955616909030992,-0.044697852360819273,0.04635337137350397,-0.09341733495093492,-0.051398248794417276,0.0172985419084646,-0.6826176368635108,-1.5707963267948966
5.782374382019043,-0.048996888256916324,-0.028040865208438376,2.0240882229821158,-0.08143060694858535,-0.04572852352055788,0.04669468414558248,-0.09402324208802978,-0.05166741836608682,0.016833387272604763,-0.6520048352938033,1.530640078485379
5.802666187286377,-0.050647022826339205,-0.02896825508593021,2.0250327322917028,-0.083384046420555,-0.04682705578003901,0.04721246708903803,-0.09462639877368223,-0.05191160947678867,0.01637477753422916,-0.6834207618297015,-1.5707963267948966
5.822489023208618,-0.05319287375016905,-0.03039825730254036,2.026459559877669,-0.08627741074413924,-0.04843929852474869,0.04778542384182438,-0.09516577870771628,-0.052194954705118445,0.01592022107585494,-0.6550375601555181,1.41916008370917
5.842529058456421,-0.05493749014571352,-0.03137750071332371,2.0274184222865665,-0.08818596453353808,-0.04948595770016514,0.048099314627809975,-0.09568649710182568,-0.052469499330857115,0.015469494814841325,-0.6864534866914163,-1.5707963267948966
5.862504720687866,-0.05582609327107492,-0.03187689812201739,2.027904780223455,-0.08920253162725655,-0.05006528258014441,0.04838732078733562,-0.09606993233634678,-0.05244244643190897,0.015026728942489838,-0.6550375601555185,1.5707963267948966
5.883001089096069,-0.0585471034004429,-0.033404283232474886,2.0293665961025504,-0.09213734337112368,-0.051691364905925775,0.048925818796257174,-0.09650324778940411,-0.052435868057211,0.014587981348297972,-0.6864534866914163,-1.5707963267948966
5.902578115463257,-0.060409178960064584,-0.03444859699805741,2.0303480010113044,-0.09407160067470549,-0.05273997189694992,0.04921322200801349,-0.0969196741787661,-0.05242394186938303,0.014152959784160481,-0.6556942250104463,1.5379630840484992
5.92238712310791,-0.06231290350852253,-0.03551710903831916,2.031337203027251,-0.09608249793652669,-0.05386286285224232,0.04954698445296122,-0.09689725711493855,-0.05153781286840974,0.013725304266305322,-0.687110151546344,-1.5707963267948966
5.9425272941589355,-0.06425393076839518,-0.03660461524805883,2.032330859449366,-0.09802010963765374,-0.054884835366354856,0.049817244405743595,-0.09686173430992406,-0.050660985613461794,0.013301298230361634,-0.6568620436411932,1.5124053952575434
5.96270489692688,-0.06524108751802182,-0.03715889792059796,2.0328307054744297,-0.09904739199269204,-0.055470926865707725,0.049980868958898896,-0.09650728027067117,-0.05001536135288095,0.012885682918192533,-0.6882779701770909,-1.5707963267948966
5.9834606647491455,-0.0682588321520096,-0.038850039411444895,2.034337364910339,-0.10203116958343544,-0.05709895546106132,0.05040771692404949,-0.09704196107416549,-0.04977000756597488,0.013248784293949826,-0.6568620436411932,1.5707963267948966
6.002575159072876,-0.07031889866580136,-0.040001956059792405,2.0353481928861687,-0.10397720307174005,-0.058091884502152386,0.05067626925760418,-0.09755834526233913,-0.0495225463068176,0.013605364348508361,-0.6882779701770909,-1.5707963267948966
6.0224244594573975,-0.07242217359655263,-0.04118026194753638,2.0363643377406384,-0.10603267217477179,-0.05924394584839492,0.050932683343953275,-0.09783770753067457,-0.04950469054948489,0.013177523830437477,-0.6581750696760924,1.5051450250499254
6.042561769485474,-0.07456241231991152,-0.042375040515435204,2.0373855985735676,-0.10799207235546436,-0.0602338449730831,0.051191986073713905,-0.09809936726492985,-0.0494849001648119,0.012753361064072282,-0.6895909962119902,-1.5707963267948966
6.062505722045898,-0.07564915748373241,-0.04298317478825252,2.0378984414494146,-0.10903124364973707,-0.060814628078634976,0.051347055598483606,-0.09858124035365196,-0.04864414178644555,0.0139007530123184,-0.6581750696760924,1.5707963267948966
6.082457542419434,-0.07896568200825863,-0.044832365734245316,2.0394439860831315,-0.11202589020318805,-0.06234879697929451,0.05173388709966192,-0.09896222669287155,-0.047752448068091834,0.015063923826687853,-0.6895909962119902,-1.5707963267948966
6.102511644363403,-0.08122601678584364,-0.04608883309925982,2.04048175327671,-0.11400879948815619,-0.06329499266745289,0.052046650999915775,-0.09932580794279637,-0.04686839118353868,0.01620954753595068,-0.6581750696760924,1.5707963267948966
6.12243390083313,-0.0835275117632754,-0.047369069472273005,2.0415233027547566,-0.11603301180699717,-0.06435301871164538,0.052300226224231895,-0.09961091343062069,-0.0460594379903343,0.017293241578339925,-0.6895909962119902,-1.5707963267948966
6.142577171325684,-0.08586811237407266,-0.04866528814108457,2.0425728373367846,-0.11802794532370771,-0.06526617412689377,0.05265678852043948,-0.09987973004827652,-0.04525722478976302,0.018360205251217416,-0.6581750696760924,1.5707963267948966
6.162580966949463,-0.08705419384510171,-0.04932424547372554,2.0430980480346266,-0.11905130053587594,-0.06583264942190148,0.052771079982624286,-0.1000213614066041,-0.04514481257681421,0.0178346276560414,-0.6895909962119902,-1.5707963267948966
6.182981729507446,-0.09067141469927022,-0.051323603236638926,2.0446862060228126,-0.1220680425760829,-0.06729440229589699,0.053219548260634755,-0.09959026141113747,-0.044404391722697216,0.017315186045976573,-0.6581750696760924,1.5707963267948966
6.202514410018921,-0.09313266442786967,-0.05267832321036387,2.045754025618577,-0.12405546429350721,-0.06817515438110183,0.05356069468896401,-0.0991504651423684,-0.04367218249192654,0.01680019774249285,-0.6895909962119902,-1.5707963267948966
6.222392559051514,-0.09563562275459936,-0.05405515549064825,2.0468268263796747,-0.12609037379542037,-0.06915197057849123,0.05384610847883784,-0.0988884630820319,-0.04251116768350483,0.016294667103918248,-0.6581750696760924,1.5707963267948966
6.2425537109375,-0.09817718992909306,-0.05544662040414135,2.0479069739984626,-0.12806543519188915,-0.06999069532065817,0.05416698281320122,-0.09861592542155165,-0.04136353170977574,0.015793490822188803,-0.6895909962119902,-1.5707963267948966
6.262787580490112,-0.09946487997960636,-0.05615142492211557,2.048449449751282,-0.12911024416078362,-0.0704748080270097,0.05431950001858881,-0.0984063725565829,-0.04014864655994295,0.015302475089414513,-0.6581750696760924,1.5707963267948966
6.282424688339233,-0.10338481614663586,-0.05828770446567074,2.0500856761105695,-0.13212655368453063,-0.07178382930733754,0.05476762664869387,-0.09809130451164001,-0.0390339862700708,0.014816983067169904,-0.6895909962119902,-1.5707963267948966
6.302497625350952,-0.1060469439832965,-0.05973111419135633,2.0511839598847432,-0.1340851468869666,-0.07255347123309956,0.055059146503369544,-0.09776637705300587,-0.03793237692641947,0.014335703232338504,-0.6581750696760924,1.5707963267948966
6.3224663734436035,-0.10875149284472121,-0.061195653838933044,2.052288248436727,-0.1361205784579134,-0.07344960514418027,0.05534777013432421,-0.09753132684968317,-0.03674155832947213,0.013863251251253365,-0.6895909962119902,-1.5707963267948966
6.342456817626953,-0.11149339446923778,-0.06267191556719666,2.053397945198939,-0.1380687645202114,-0.0741726450345583,0.055620344978735664,-0.0972854857632119,-0.03556476307024397,0.013394918563826784,-0.6581750696760924,1.5707963267948966
6.3625524044036865,-0.1142772827223514,-0.06416825741165481,2.054513192343609,-0.1400867935702191,-0.075020736284723,0.055889476216101214,-0.09687765789844766,-0.034766329289483866,0.012935319707488686,-0.6895909962119902,-1.5707963267948966
6.382362365722656,-0.11709947231842331,-0.06567749177665234,2.055633776590022,-0.1420568953559328,-0.07577185581708179,0.05614980422779309,-0.09643235102812782,-0.03402627145472587,0.012482030821365992,-0.6581750696760924,1.5707963267948966
6.402477502822876,-0.11995986658530655,-0.06719968525252208,2.0567592390606797,-0.14398101877791544,-0.07644505438788858,0.056394945148449026,-0.0959785855084798,-0.033295056218376314,0.01203272373933419,-0.6895909962119902,-1.5707963267948966
6.4225075244903564,-0.12286182363435522,-0.06873906047592683,2.057889842331598,-0.14597993681086224,-0.07720200530765116,0.056640636330760254,-0.09600903091979895,-0.033210822361354086,0.011591973116725083,-0.6581750696760924,1.5707963267948966
6.442615509033203,-0.12580062546158072,-0.070289737136498,2.059024944264125,-0.14790029777309052,-0.07786538033832818,0.05686810072459919,-0.09602459059004619,-0.03312669899493332,0.011155113683762987,-0.6895909962119902,-1.5707963267948966
6.462518692016602,-0.12728622239408482,-0.07107118221783189,2.059594392768752,-0.14890637715793223,-0.07822018695495421,0.056986522246803735,-0.09554283226161277,-0.03243195770895509,0.010727495050214454,-0.6581750696760924,1.5707963267948966
6.483090162277222,-0.13179773374982787,-0.07343254067162477,2.06130890048546,-0.15180659951494316,-0.07919023230509345,0.05730514651941988,-0.095095676293832,-0.031637051316637715,0.010305200055465032,-0.6853990872731117,-1.3612008798509656
6.502500772476196,-0.13485285464360544,-0.07502262021566862,2.0624570364907946,-0.15370397127356553,-0.07981510448808225,0.05750705888712049,-0.09464010033993397,-0.03085176726530038,0.009886661750119907,-0.653983160737214,1.5707963267948966
6.522413015365601,-0.13794774566076598,-0.07662496484963154,2.0636136804646625,-0.15564123148799747,-0.08042202743547684,0.05782427710836165,-0.09424357393377844,-0.029868811768107954,0.009475603822166478,-0.6853990872731117,-1.5707963267948966
6.54267430305481,-0.14107939212582682,-0.07823931423177527,2.064772033907682,-0.1575220636607754,-0.08100967433347317,0.058009709257868115,-0.09383816758754762,-0.02889787729348091,0.009068222905010607,-0.653983160737214,1.5707963267948966
6.562556743621826,-0.14266063360284273,-0.07905118402833335,2.0653538285902835,-0.15849493896483074,-0.08129984709611235,0.058129612877977535,-0.09346965839697419,-0.02791663289214807,0.008669534966430486,-0.6844260473889623,-1.5221443325874162
6.582361698150635,-0.14745903651897252,-0.08150394860715822,2.067102790151534,-0.1613383901429264,-0.08216299388916068,0.058420722557494656,-0.09313306494511571,-0.026872094214450234,0.008275853165733099,-0.6530101208530645,1.5707963267948966
6.602510213851929,-0.15070440801604862,-0.08315251391496592,2.06827283370545,-0.1631976056641283,-0.08269009821023084,0.05858233239482697,-0.09278689567163911,-0.025840488888710097,0.0078857211782165,-0.6793573943940991,-1.3173636770517305
6.62266731262207,-0.15398689395398607,-0.08481141584761581,2.0694460316657546,-0.16504980248832776,-0.08319669930205427,0.05873617498805956,-0.09243120417853624,-0.024821762164747657,0.007499126706136823,-0.6479414678582014,1.5707963267948966
6.642610549926758,-0.1556442817623237,-0.08564663448756517,2.0700384911981993,-0.16601946648103763,-0.083479718610291,0.058949708057595744,-0.09209595078446976,-0.02380685398048098,0.007122473250387479,-0.6793573943940991,-1.5707963267948966
6.662512302398682,-0.15898360550573484,-0.08732179573728102,2.0712210134502413,-0.1678755096036597,-0.08397467448690242,0.059157610815031965,-0.09172543355596745,-0.02277915687207966,0.006751029965952107,-0.6479414678582014,1.5707963267948966
6.682724475860596,-0.16406188012204137,-0.08985267957429482,2.07299915746966,-0.17064427497807444,-0.08468787183952964,0.0593644924763916,-0.09130415839009876,-0.02164349006668719,0.006384711497340741,-0.6774554184349215,-1.4756975288360064
6.702586650848389,-0.16749299794509614,-0.09155069072488185,2.0741877000078266,-0.1724660748881299,-0.08510950609482239,0.05948855144465098,-0.09087442743074098,-0.020522351733688986,0.006021742622607817,-0.6460394918990238,1.5707963267948966
6.722439527511597,-0.17096135976879107,-0.093258633036072,2.0753808748608322,-0.17430532759528236,-0.08554633747777327,0.0596529038332882,-0.09087687941090382,-0.01862973948022063,0.005666329699219775,-0.6748762880574422,-1.4418398079209194
6.742728233337402,-0.17446564118209593,-0.09497316075686726,2.076575042672737,-0.17612277674457702,-0.08590020568098541,0.059762703541712064,-0.09086578339912771,-0.01676106158743491,0.005314184876950602,-0.6434603615215444,1.5707963267948966
6.763123989105225,-0.17623176206596614,-0.095834677551961,2.077175127724636,-0.17704343760291746,-0.08609511002374592,0.059893998213289716,-0.09127401866919749,-0.014186210127247844,0.006563306299890698,-0.6748762880574422,-1.5707963267948966
6.782487392425537,-0.17979091190321037,-0.09755924697637877,2.0783744027351023,-0.17887284466638856,-0.08635335876219613,0.06003760728251821,-0.09166358367563748,-0.011644111106846322,0.00779464222246947,-0.6434603615215444,1.5707963267948966
6.802572250366211,-0.18338558956560985,-0.09929578753763345,2.0795759666373135,-0.18067911800369077,-0.08675144807882977,0.06016844744818396,-0.09237939604639385,-0.009043457015725275,0.00905648490050862,-0.6675349165849713,-1.2037277531713464
6.822627544403076,-0.18701769435891505,-0.10103245349515326,2.080781230091309,-0.18253366963408255,-0.08690659085953276,0.06036204314113874,-0.09307189012560631,-0.006476410580339979,0.010300043031488808,-0.6361189900490736,1.5707963267948966
6.842493057250977,-0.19068332307458438,-0.1027825060513609,2.0819898419366787,-0.1842998345473138,-0.08730087404981558,0.06058499708577583,-0.09320233421320533,-0.005782595057833786,0.009861859930134787,-0.6675349165849713,-1.5707963267948966
6.8624138832092285,-0.19625109124784304,-0.10541068222658313,2.083812096603069,-0.1870153216780518,-0.08764015806547819,0.06087495704413666,-0.09437645490770506,-0.0038831119884340454,0.009429393666956434,-0.6361189900490736,1.5707963267948966
6.882530927658081,-0.20001034972677373,-0.1071641366496145,2.085031452987052,-0.18891433866208251,-0.08769903734602294,0.06105925282381265,-0.09552019141878434,-0.0020090426980504837,0.009000834323003734,-0.664114423862912,-1.39977169069192
6.902446269989014,-0.2019008458867108,-0.10804549896856304,2.0856418494952917,-0.1897820786936647,-0.08782082311762127,0.061137947021384746,-0.0968812920525703,-7.08226148221851e-07,0.008581798789983967,-0.6326984973270138,1.5707963267948966
6.922486782073975,-0.20571595281385768,-0.10980178302641455,2.086866297050116,-0.1917330414156626,-0.08780097768785328,0.06130542435933553,-0.09820951300438109,0.0019807875732967984,0.008166568030970515,-0.6641144238629115,-1.5707963267948966
6.942718982696533,-0.20956202953259345,-0.11156469935658667,2.088096889710193,-0.19349364070533578,-0.08791903046335602,0.061556154076570856,-0.09901597841624536,0.004883366786127635,0.009532194630190099,-0.6326984973270138,1.5707963267948966
6.962640047073364,-0.213448174502475,-0.11332510021295222,2.089328535717756,-0.19536196758599292,-0.08791375795977399,0.061692050775291093,-0.09974035800045965,0.005993683201955245,0.009099739676882128,-0.6544031915321358,-1.0852347102561
6.982623100280762,-0.21934804863810003,-0.1159651205979232,2.0911826340137236,-0.1981941950879764,-0.08787333823937347,0.06196554413586729,-0.100430690839159,0.007046297403540409,0.00867301761664523,-0.6229872649962376,1.5707963267948966
7.002477407455444,-0.22333206343246492,-0.11772110872532815,2.09242365124604,-0.2002095009987454,-0.08772201884605921,0.06213476963007142,-0.10109568798148713,0.008082995107588123,0.008250177700963535,-0.6544031915321353,-1.5707963267948966
7.022449493408203,-0.22734930263773723,-0.11947845465261726,2.093675002541503,-0.20206013053429722,-0.08764236520982434,0.06244408914172152,-0.10170182970811152,0.010886214662466488,0.009745466520915786,-0.6229872649962376,1.5707963267948966
7.042547941207886,-0.23141088479102684,-0.12122893965307979,2.094925932031104,-0.20410002313981795,-0.08739691207085008,0.06265377265695773,-0.10228333535907304,0.013653046755459673,0.011219319531790804,-0.6504448933392735,-1.3728814171517945
7.062591552734375,-0.2334532051272844,-0.12210418343719251,2.0955521326736077,-0.20502263796874878,-0.08730454191578046,0.06274483863216306,-0.10301189755591726,0.014956522900162283,0.01074931693126284,-0.6190289668033753,1.5707963267948966
7.083096027374268,-0.23964666086977354,-0.12472035424534295,2.097439174777969,-0.20801609986572775,-0.08695241147347735,0.06305873427290334,-0.10353745423542071,0.01594301742885584,0.010285425683190241,-0.6470884295231007,-1.402973135986274
7.102529048919678,-0.24382772420605747,-0.12645614890312804,2.0987023758325956,-0.2100919064074196,-0.08662381916330193,0.06325983888658875,-0.10403924964664674,0.01691356115502469,0.00982573447339456,-0.615672502987203,1.5707963267948966
7.122401237487793,-0.248046002465994,-0.1281879953231121,2.0999718125037257,-0.2120685406143689,-0.08634484226736303,0.06350434068098867,-0.10440909143048674,0.017254859043702407,0.009375078670859054,-0.6413196871427336,-1.282359207776529
7.142548084259033,-0.252308278633094,-0.12991141884767687,2.1012437444946195,-0.21416023431504447,-0.0859963994582906,0.0636873698998318,-0.10475655915965207,0.017588078978955667,0.008928525851447324,-0.6099037606068354,1.5707963267948966
7.1624977588653564,-0.25445297874711803,-0.13076999405007306,2.101885018599064,-0.215150766679913,-0.08579677970207279,0.06389385448156232,-0.10500981568844293,0.018069936450176512,0.008491038150505207,-0.6413196871427331,-1.5707963267948966
7.183319330215454,-0.2609532323327637,-0.13333340798797463,2.1038080644948693,-0.21826331495886048,-0.08517731935195035,0.06420421196957275,-0.1054927208688336,0.018895442360457138,0.008059108828853266,-0.6099037606068354,1.5707963267948966
7.202517032623291,-0.26533962819073226,-0.1350331209542674,2.1050937319591956,-0.22037780197284296,-0.08479127232456007,0.06436110792286667,-0.10595206330016015,0.019706929268675715,0.007631146511321203,-0.6254520159076549,-0.7774127650409746
7.222436904907227,-0.26976718161108876,-0.1367199190243178,2.106381974503781,-0.22247392908799132,-0.08426903155164521,0.0645464885666718,-0.10657395787600935,0.019832865893808244,0.007212059887331588,-0.5940360893717571,1.5707963267948966
7.243067741394043,-0.2742380151386954,-0.13840132494570392,2.1076743189416445,-0.224611409690492,-0.08387115807174311,0.0646865711685427,-0.10716976539717182,0.019953620951149543,0.006796844350082917,-0.6254520159076549,-1.5707963267948966
7.262615203857422,-0.2764889872995003,-0.1392354519608505,2.108329176685999,-0.2256770821950717,-0.0835622612831365,0.06493119332772118,-0.10817932044013938,0.020617731086908838,0.00638984140878878,-0.5940360893717571,1.5707963267948966
7.283474683761597,-0.28330644767143426,-0.14172924421476465,2.110276651489861,-0.22885884480293253,-0.08283805851461735,0.06501825078398862,-0.10581989258163384,0.020237147762709837,0.005631585391331252,-0.6254520159076549,-1.5707963267948966
7.3026041984558105,-0.2879046318978958,-0.1433819832813018,2.11157809267415,-0.23095175620926034,-0.08243711365275219,0.06512336690621912,-0.10347340192811606,0.019857493755023593,0.004881363283509045,-0.5940360893717571,1.5707963267948966
7.322383403778076,-0.29254612134578994,-0.1450193869213013,2.1128760974603593,-0.23306394551526816,-0.0818488126966718,0.06505582907565877,-0.10103562980844819,0.02002382944160674,0.006626819934830645,-0.6188151035003244,-1.2389507064283656
7.342530012130737,-0.2972274455989727,-0.14665234761200518,2.1141786545028993,-0.23506040288300156,-0.08144672135371395,0.06520560896597517,-0.09861255320475061,0.02018433596948305,0.008346957964727173,-0.5873991769644267,1.5707963267948966
7.362691164016724,-0.29958924122002334,-0.1474599719520906,2.1148306187432135,-0.2362046556316353,-0.08108227826384873,0.06527856532567175,-0.09547962050791922,0.01966149059826237,0.007552028017547278,-0.6188151035003244,-1.5707963267948966
7.3830885887146,-0.30672932201633785,-0.1498776363334643,2.1167901773398357,-0.23936659894388237,-0.08032111203496319,0.06545309571262167,-0.09305507266864615,0.01971469607301406,0.00906229570211243,-0.5873991769644267,1.5707963267948966
7.402575492858887,-0.3115351041508174,-0.1514801122879947,2.11810115128087,-0.24120358449799226,-0.07992631939412086,0.06564925820060262,-0.09064607014858501,0.019763903650298502,0.01055024016786035,-0.6037411739744267,-0.8170998505000027
7.422383069992065,-0.3163948700769399,-0.15306596739764194,2.1194119616268527,-0.2434477696222763,-0.07931059859261952,0.065798374701902,-0.0895508892407237,0.02034639055328647,0.012163040667655691,-0.5723252474385285,1.5707963267948966
7.442563772201538,-0.32128166258513485,-0.15464807175864848,2.1207304680512973,-0.24522782727026424,-0.07889792917826502,0.06605756393908042,-0.08845471158659361,0.020918890267597925,0.013751901276986984,-0.6037411739744263,-1.5707963267948966
7.46293306350708,-0.3237489971425113,-0.15543132250851427,2.121394720580638,-0.24641909036019863,-0.07855303796999644,0.06623510977483214,-0.08966895599160865,0.021435134870023888,0.013211855980451184,-0.5723252474385285,1.5707963267948966
7.482512474060059,-0.32869539210607224,-0.15699806229039692,2.1227220293879165,-0.24822434791528708,-0.07811925043323659,0.06649398703447247,-0.09085153430396709,0.021942071120857748,0.012676680147617832,-0.6037411739744263,-1.5707963267948966
7.502499341964722,-0.331189471237364,-0.15777511708716313,2.123381003097173,-0.2493405248458903,-0.07781106172025251,0.06643477804120751,-0.09199097497937396,0.02237391722504887,0.012154328809383299,-0.5723252474385285,1.5707963267948966
7.52251935005188,-0.3412382839648787,-0.1608668446876694,2.126042188122554,-0.2530339831764569,-0.0768413185088994,0.06675582923230497,-0.09050135796963761,0.023033560727318197,0.013563683174147106,-0.5961603412662289,-1.1917546913850163
7.542654752731323,-0.3463169647806977,-0.16239902092735325,2.127380110332294,-0.2548291455851422,-0.07637414381648425,0.0670410183971873,-0.08901551199789828,0.023682054479220612,0.01495168127101307,-0.5647444147303311,1.5707963267948966
7.562597751617432,-0.34886960206796447,-0.16315986850558703,2.1280527414043817,-0.2557210491071977,-0.07606583143149896,0.06724217041433855,-0.08935004856142106,0.026538453764708845,0.014383083809223015,-0.5961603412662289,-1.5707963267948966
7.582564115524292,-0.35400191427486005,-0.16467568895432144,2.1294004237789164,-0.25751121426514384,-0.07550682120345832,0.06752418877153915,-0.0896628553457791,0.029356127922200485,0.013819603241709898,-0.5647444147303311,1.5707963267948966
7.602537155151367,-0.3591723633038539,-0.16618208206713808,2.130753028061293,-0.25936104991204084,-0.07496770679801043,0.06777102326821562,-0.08997761883102064,0.03203199327641482,0.0132673533287171,-0.5880292153745494,-1.164240032210917
7.6224446296691895,-0.36699384463478185,-0.16842239153708916,2.132792788265542,-0.2620627896269634,-0.0741510818239435,0.06820300652410649,-0.09007592570304021,0.034793304917690455,0.01272183186634442,-0.5566132888386512,1.5707963267948966
7.6425909996032715,-0.37225312120556725,-0.16989827233481222,2.1341593566419963,-0.26386513114528604,-0.07342792081567491,0.06845202922151271,-0.09015503560912214,0.037516447312273715,0.012181261638743758,-0.588029215374549,-1.5707963267948966
7.662802219390869,-0.3748949656299109,-0.17063765709490486,2.1348498402416825,-0.2647269591725851,-0.07323186334848394,0.06870462153672209,-0.09027163751459687,0.0400853080186081,0.011651464888330285,-0.5566132888386512,1.5707963267948966
7.682480812072754,-0.3828747037854449,-0.17282625091563197,2.136915580719926,-0.2673571793949326,-0.07228601185043673,0.06902793923526011,-0.09036915509147357,0.04236972257740557,0.01112877551414501,-0.570307281759415,-0.6846996460381893
7.702479839324951,-0.3882399267699369,-0.17426334654571896,2.138298330653152,-0.2691653817877143,-0.07141604517443904,0.06924532773989811,-0.09044797685351443,0.04462151994787187,0.010610871034880977,-0.5388913552235168,1.5707963267948966
7.7223961353302,-0.39363655600815817,-0.17569551527089924,2.139697199165052,-0.2708558279197894,-0.0708223081608615,0.0697694247257174,-0.09052126677978185,0.04676608138812764,0.010101379151376353,-0.5703072817594146,-1.5707963267948966
7.742814540863037,-0.39907178078677236,-0.17710246680698408,2.141094574204093,-0.2726668330131363,-0.06986580084412602,0.06996639651917982,-0.09057618993059008,0.04887946456994157,0.009596581131550022,-0.5388913552235168,1.5707963267948966
7.762856721878052,-0.40179992871061554,-0.1778061591110551,2.141793944555929,-0.27348538693019464,-0.06956985842866391,0.0700164847954855,-0.09050864895918502,0.05094680411723588,0.009103360048329252,-0.5703072817594146,-1.5707963267948966
7.782957315444946,-0.4100423284773151,-0.1798785312296724,2.143898063773762,-0.2761042561630393,-0.06828532926145382,0.07026810667326557,-0.08873691577597628,0.04944054269761865,0.008617109299110635,-0.5388913552235168,1.5707963267948966
7.8025431632995605,-0.415582043270387,-0.1812344493566105,2.1453051171383914,-0.2778613441730776,-0.06731145318378053,0.0704356240146013,-0.08697322419454136,0.047949616357225805,0.00813537649979558,-0.5635740727918757,-1.2341358784179413
7.822410345077515,-0.42115488674191476,-0.18257642007783875,2.1467059909267707,-0.27956304742087723,-0.06644050299603509,0.07041546440890688,-0.08632879761688513,0.050377105152939666,0.00766528702461429,-0.5321581462559779,1.5707963267948966
7.842788457870483,-0.4267633700665599,-0.18389499474513504,2.1481158021527644,-0.28128310888201674,-0.06540899609662426,0.07056410586563334,-0.08567595016070152,0.05276739890200473,0.007199589317838455,-0.5635740727918757,-1.5707963267948966
7.862997055053711,-0.42958154333857,-0.18454612090355085,2.1488232017796354,-0.2821591686888878,-0.0648850750183561,0.07067200605477152,-0.0843582220546301,0.05115398237737547,0.006744306475338184,-0.5321581462559779,1.5707963267948966
7.882429599761963,-0.4352415105457729,-0.18583369837658809,2.15023796062388,-0.2838331621165902,-0.06387799756860776,0.07080237502273909,-0.08304124791871777,0.049556396497623716,0.006293302146217084,-0.5407235857802966,-0.4282719762159326
7.902494668960571,-0.43808578209629484,-0.1864703407823876,2.150944799235635,-0.2847015640355833,-0.0633995183373986,0.07081308198996307,-0.08145217531759343,0.04791246573698949,0.0058531282297069965,-0.5093076592443984,1.5707963267948966
7.922427415847778,-0.4495441085459243,-0.18896077948278386,2.1537906671634772,-0.2880733550821383,-0.0613111880494815,0.07126234063327178,-0.07989754891334076,0.04560955562862955,0.005414742612079024,-0.5407235857802961,-1.5707963267948966
7.9424378871917725,-0.4553214516823523,-0.19017803359656404,2.1552169679073945,-0.2896557875945255,-0.06042181551056867,0.07136628636188605,-0.07834625923008005,0.043331899462198564,0.004980523420635108,-0.5093076592443984,1.5707963267948966
7.963023662567139,-0.458224819972166,-0.1907722676226168,2.155922526028456,-0.2905045553240833,-0.05977131744395531,0.07117871029171738,-0.07622584094935662,0.04195683679295899,0.004555712159658813,-0.5407235857802961,-1.5707963267948966
7.982422828674316,-0.46405001544520497,-0.1919593936309157,2.1573469832594205,-0.29200796121363093,-0.058945824010030894,0.071265610323649,-0.07411661069895338,0.04059464885808553,0.004134967612280434,-0.5093076592443984,1.5707963267948966
8.002371311187744,-0.47285494547082724,-0.19368419087508768,2.1594766657385813,-0.2944711027203947,-0.05718119805644173,0.07109972797704787,-0.07190105002873998,0.038690489471533626,0.003721519793988496,-0.5407235857802961,-1.5707963267948966
8.022623062133789,-0.47875860063802617,-0.19482020267873285,2.160899377238583,-0.2958870692403102,-0.05642626263615362,0.0711700571699361,-0.06969762182709148,0.03680638984750987,0.0033120635723749158,-0.5093076592443984,1.5707963267948966
8.042579650878906,-0.4817265154802195,-0.19537152479028178,2.161605153514315,-0.29671529651883827,-0.05575087682191789,0.0709863764014397,-0.06649288991450236,0.035928292370352125,0.002911522295572138,-0.5203421906086128,-0.5517265682107197
8.063542366027832,-0.49066572716361184,-0.19701654906979357,2.16373186847714,-0.29890588747936114,-0.054365494794306975,0.07100055414448292,-0.0628605416499015,0.034385793823671254,0.0025154670367232746,-0.488926264072715,1.5707963267948966
8.08250379562378,-0.4966561764188862,-0.198097083889,2.165152356443427,-0.30012703376581495,-0.05369307873509541,0.07104693520532372,-0.059259255223312234,0.03285831034279725,0.002123283111326279,-0.5203421906086128,-1.5707963267948966
8.10248613357544,-0.49966867354037864,-0.198622513135057,2.165869482332803,-0.30092886975821886,-0.05309648205819288,0.07119096376946993,-0.056056898442197224,0.03153473397652993,0.0017373386065397658,-0.488926264072715,1.5707963267948966
8.12250566482544,-0.5056982501110494,-0.19967822345335567,2.1672936235366156,-0.30201819849929695,-0.05247892074512916,0.07122188281275624,-0.052880254195599545,0.030223441273592014,0.0013551986758419334,-0.5203421906086128,-1.5707963267948966
8.142570972442627,-0.5117673545265398,-0.2007060912886048,2.1687163682719444,-0.3035104398825634,-0.05148657034275533,0.07122650901502164,-0.05024424780610396,0.03006271504542236,0.0009792658272384886,-0.488926264072715,1.5707963267948966
8.162638664245605,-0.5178543166259416,-0.2017247087586964,2.1701392377302158,-0.30472037863352075,-0.050722349729350386,0.07117140072308296,-0.04798835158316686,0.02939826916720209,0.0006087155007583315,-0.5203421906086128,-1.5707963267948966
8.182650327682495,-0.527027980417719,-0.2032260203963834,2.1722735736308283,-0.3064383336907669,-0.04964388365224222,0.07116137584824953,-0.04619871829549941,0.029064364784699502,0.00024228143708130586,-0.488926264072715,1.5707963267948966
8.202505826950073,-0.533165867875747,-0.20421310750440005,2.173696825359202,-0.30734446996279324,-0.04906594333249431,0.0711625878066124,-0.04441607348601879,0.028729510125981836,-0.00012047353015434589,-0.5105142770292765,-1.079400647828077
8.222475528717041,-0.5393322795509786,-0.20518153382501386,2.1751169230361387,-0.3084972388360423,-0.0482920327876306,0.07113018142436825,-0.04541449827553008,0.03220980395600288,-0.0004771071185659109,-0.4790983504933788,1.5707963267948966
8.242570877075195,-0.5455113724175393,-0.20614070292444356,2.17653940764843,-0.3094152845337314,-0.047613437686747084,0.07111710307334247,-0.046385514620248335,0.03564164788162251,-0.0008301267548365532,-0.5105142770292765,-1.5707963267948966
8.262594938278198,-0.5486103963930682,-0.20661519451786187,2.1772569830782644,-0.3099274539834895,-0.04729336443653694,0.0712582931243347,-0.044686563107906335,0.032929207550725655,-0.0011776055638079675,-0.4790983504933788,1.5707963267948966
8.282407999038696,-0.5548177697546884,-0.207554655268625,2.1786818904321668,-0.3108042345293526,-0.04666165043921044,0.0712312958494381,-0.04299226852864685,0.03024726582964423,-0.0015215307342288762,-0.5105142770292765,-1.5707963267948966
8.302584886550903,-0.5579264507952507,-0.20802427301755563,2.179394622937256,-0.3111846689032569,-0.04648372792383378,0.07122910616852263,-0.04255231587120403,0.030226966058905454,-0.0018590536189150944,-0.4790983504933788,1.5707963267948966
8.32233214378357,-0.5704060874614931,-0.20985975520916494,2.182243385126675,-0.312839131137213,-0.045301058041467564,0.07116835659586579,-0.042805863603732265,0.027528690943988847,-0.0021935378260145434,-0.4911840576849631,-0.6042853595792153
8.342578172683716,-0.5766714471327898,-0.21076044892802984,2.1836662914257894,-0.31369761271553037,-0.044777202232305975,0.07112116994281817,-0.04303888246640847,0.024862172750575895,-0.0025245498429742053,-0.45976813114906534,1.5707963267948966
8.362785816192627,-0.5798076853313445,-0.21120493359097386,2.184385237119245,-0.3140439839202018,-0.044498198342036645,0.07136555715174002,-0.04327239341432994,0.02083377445804001,-0.002851159977648998,-0.4911840576849631,-1.5707963267948966
8.382515668869019,-0.5860972339852495,-0.21209099684564836,2.1858119564275453,-0.31491158852556733,-0.04412138740087079,0.0713052963900156,-0.043484512061802774,0.016855688515335077,-0.0031743466728175033,-0.45976813114906534,1.5707963267948966
8.402499675750732,-0.5892435655608301,-0.2125239743686819,2.1865261004383822,-0.315206727073606,-0.04376890828510154,0.0712776626719092,-0.04419649297776948,0.01309711411842597,-0.003491325696041618,-0.4911840576849631,-1.5707963267948966
8.422408819198608,-0.6018760675926924,-0.21424512257448214,2.1893725981749013,-0.3167001446814903,-0.0428001572123444,0.07109318747842747,-0.04537802423023654,0.00961581633358566,-0.003804745549958568,-0.45976813114906534,1.5707963267948966
8.442528247833252,-0.6082192232008239,-0.2150994324068347,2.1907936802476455,-0.3176192440421616,-0.042642281421118394,0.07101398618689152,-0.04652640024097776,0.006179193919286002,-0.004114828480184253,-0.4911840576849631,-1.5707963267948966
8.462491512298584,-0.6113888516078072,-0.21551497437250366,2.191497032209596,-0.3178358299927134,-0.04231076541321496,0.0708197796300277,-0.04739479585823196,0.002647935396954962,-0.004417741048957276,-0.45976813114906534,1.5707963267948966
8.48258638381958,-0.6177551035672832,-0.21636089321890004,2.19291252422281,-0.31879216117460635,-0.04229273737105467,0.07072842284355418,-0.04823336442237763,-0.0008375110341658023,-0.004717395605939623,-0.4911840576849631,-1.5707963267948966
8.502522706985474,-0.6241244202956802,-0.21718742653959563,2.1943169174306045,-0.3193575919085735,-0.04185106293880317,0.07042362701564507,-0.048893082944458724,-0.004298586264208346,-0.005010126669633818,-0.45976813114906534,1.5707963267948966
8.522397994995117,-0.6337169629043233,-0.21843238384569585,2.1964245203397184,-0.32054774488451665,-0.04164858294647655,0.07018603088539432,-0.05041882918011388,-0.007121825530199974,-0.005298469229630037,-0.4911840576849631,-1.5707963267948966
8.542605876922607,-0.6401381013835247,-0.2192669662008306,2.197827162198497,-0.3215710622292541,-0.041818937777306796,0.07007720436202242,-0.05190659046984876,-0.009907391126569019,-0.005583658550300705,-0.45976813114906534,1.5707963267948966
8.562492847442627,-0.6433467649879008,-0.21967542116599792,2.1985270306861437,-0.32182633174666997,-0.04165529727117238,0.07001313267868517,-0.05324472533054484,-0.012804579630047474,-0.005863073941143628,-0.4911840576849631,-1.5707963267948966
8.582398414611816,-0.649794027977588,-0.22051127921265185,2.199926102251765,-0.3229043078033001,-0.04194003405562586,0.06989310279537186,-0.05454690277886348,-0.01566258067293236,-0.0061394005609294484,-0.45976813114906534,1.5707963267948966
8.602467060089111,-0.6562463097919008,-0.22133715807320556,2.201320889352356,-0.32358425132412283,-0.041881698904593666,0.0697424927868318,-0.05541225067064718,-0.018642638610800333,-0.006410332195838588,-0.4911840576849631,-1.5707963267948966
8.622389316558838,-0.6659682221001549,-0.2225929929439365,2.203407674689148,-0.3249507057421187,-0.042213371391881103,0.06947074520732491,-0.055732545580364924,-0.0217783796648327,-0.006676994442935941,-0.45976813114906534,1.5707963267948966
8.642591714859009,-0.6724784028899647,-0.2234418229562645,2.204795736567013,-0.32606836180838816,-0.042679939667943735,0.06933456370573504,-0.05602911869304718,-0.024871330649479412,-0.0069406566537035235,-0.4911840576849631,-1.5707963267948966
8.66260313987732,-0.6757333289095635,-0.22386308892149398,2.205489026763999,-0.32638654881492946,-0.0427668626158567,0.06925950880130666,-0.05572202839541818,-0.028176745658758717,-0.007198861325077001,-0.45976813114906534,1.5707963267948966
8.68243932723999,-0.6822721830307157,-0.2247242796074869,2.2068727601011258,-0.3274977871708152,-0.04336307235510963,0.06911297402468293,-0.05539919126068509,-0.031436660235093915,-0.007454127518690321,-0.4911840576849631,-1.5707963267948966
8.70248031616211,-0.6888245093709696,-0.22558528356803814,2.2082534057444034,-0.3284011383983471,-0.04370447061366557,0.0689665389814125,-0.055480401472234014,-0.034479625963949115,-0.007704405719912563,-0.45976813114906534,1.5707963267948966
8.722412586212158,-0.6986986795793139,-0.226904406460474,2.210319272757999,-0.3299917536563697,-0.0445508576454889,0.06874465907385538,-0.05598863473824526,-0.037319946516571126,-0.007951112899873007,-0.4911840576849631,-1.5707963267948966
8.742542028427124,-0.7053097449525827,-0.2278030749321809,2.2116925594128385,-0.33111639058025455,-0.04532532232282379,0.06858319358693427,-0.056470710078394055,-0.04011978855496486,-0.008194960024774265,-0.45976813114906534,1.5707963267948966
8.76248288154602,-0.708621711576072,-0.2282532756774406,2.2123790878592975,-0.3316255656566302,-0.04561119517012186,0.06852768911021752,-0.056661776525070186,-0.042969241862240895,-0.008433850375981626,-0.4911840576849631,-1.5707963267948966
8.782471656799316,-0.7152655668781321,-0.22917428133455434,2.213747939085656,-0.3327605278874365,-0.04649873158263113,0.06835664656977368,-0.05683078007319219,-0.04577755708467898,-0.00866993732907439,-0.45976813114906534,1.5707963267948966
8.802541494369507,-0.7219289242240129,-0.23010515389758673,2.21511480508043,-0.33382002265387,-0.04723509731516406,0.06822165725709126,-0.05701227496273217,-0.04851662829046489,-0.008901458439173646,-0.4911840576849631,-1.5707963267948966
8.822400331497192,-0.7319677613070872,-0.23153996541880537,2.217158303727997,-0.3354935630245507,-0.048599461270927076,0.06797630401262109,-0.057259948204921716,-0.051153245504346384,-0.009129547905454869,-0.45976813114906534,1.5707963267948966
8.84261965751648,-0.7386890999294239,-0.23252235910519273,2.2185159888292647,-0.3366410488908312,-0.04964856532587057,0.06779145491517369,-0.05748485489651356,-0.053750635618991474,-0.0093549077834283,-0.4911840576849631,-1.5707963267948966
8.86253571510315,-0.742057816334502,-0.2330195517288654,2.2191945173286602,-0.33720308572900026,-0.050154682138749636,0.0677310838178296,-0.05768564496660544,-0.056267904168120525,-0.009575610570262565,-0.45976813114906534,1.5707963267948966
8.882424116134644,-0.7488134274639692,-0.2340340648570522,2.22054720930325,-0.3383586232360565,-0.051304894093437,0.06753738688474151,-0.05786445258559345,-0.058746930862367305,-0.009793637648654424,-0.4911840576849631,-1.5707963267948966
8.902511358261108,-0.7521998621366429,-0.2345473860494487,2.221222646699308,-0.3389362248560403,-0.051841276663092004,0.06745115289881591,-0.05772248368755204,-0.06126031411044334,-0.010006958142671524,-0.45976813114906534,1.5707963267948966
8.922379732131958,-0.7658043762731118,-0.2366655708716602,2.2239146158339476,-0.34126661477024606,-0.0542117126621203,0.067088979274059,-0.057318994337203624,-0.06378474926928358,-0.010217110373510594,-0.4911840576849631,-1.5707963267948966
8.94253158569336,-0.7726411447591206,-0.23776272841901844,2.2252543381173777,-0.3424088416449944,-0.05551232683844963,0.06688255723493644,-0.0569013402219894,-0.06627018140196127,-0.010424660737288994,-0.47016501768449626,1.0509520000233419
8.962627172470093,-0.7760694601769141,-0.23832119417564118,2.2259236906306934,-0.3430142198077323,-0.05619997190598102,0.06680836805570836,-0.056345631813904846,-0.06874301616643202,-0.010627777087590435,-0.501580944220394,-1.5707963267948966
8.982543468475342,-0.7829409760433382,-0.23945910513240024,2.2272577190228766,-0.3441354739221364,-0.05759923727789566,0.06659380260855095,-0.055777759487094444,-0.07117707126172167,-0.010828343461575398,-0.47016501768449626,1.5707963267948966
9.002551555633545,-0.7863877087989891,-0.24003778222212505,2.2279326599866693,-0.34476383544089256,-0.05830920572148291,0.06675408547688477,-0.05521579210174366,-0.07357136868858546,-0.011026288770357889,-0.501580944220394,-1.5707963267948966
9.022483587265015,-0.800227993439437,-0.24242647852715102,2.230596032462586,-0.3471080290180938,-0.061216884371982166,0.06635262902589349,-0.05475796355060566,-0.07588117150596832,-0.011221024758995137,-0.47016501768449626,1.5707963267948966
9.042627811431885,-0.8071810744053287,-0.2436661445692859,2.23192082798067,-0.3481984958341012,-0.06275729482611789,0.06612628198580775,-0.05428644402076045,-0.07815366950155081,-0.011413263930645753,-0.501580944220394,-1.5707963267948966
9.062724351882935,-0.8106693268209566,-0.24429840548343898,2.2325818804367787,-0.3488421869124367,-0.06358087045384297,0.06599440015069329,-0.054292185292401804,-0.08019443618822039,-0.011600928802402684,-0.4909388246415092,0.5321059789442417
9.083681344985962,-0.8211624835996588,-0.24624189891317172,2.234558458678231,-0.35056993862771424,-0.06600474779296553,0.06574267445787726,-0.05449855705437399,-0.08210094703995574,-0.011785816755624292,-0.5223547511774074,-1.5707963267948966
9.102548837661743,-0.828184794735254,-0.24757853951681633,2.235870942799526,-0.35166178913114815,-0.06766555818237484,0.06550512946415242,-0.05468281899155497,-0.08397463262404152,-0.011968279157210937,-0.4909388246415096,1.5707963267948966
9.122478246688843,-0.8352325480464645,-0.24895103007131955,2.237192944794697,-0.3528455598687466,-0.06941938472802744,0.06554309998053648,-0.05538484673956198,-0.08554748661873329,-0.01214835132771112,-0.5223547511774074,-1.5707963267948966
9.142566442489624,-0.8423005815986473,-0.25035663067070074,2.238501365239102,-0.35396004108679524,-0.07114582148506113,0.06529835220652681,-0.056058570464000465,-0.08709137117480537,-0.012326027539039197,-0.4909388246415096,1.5707963267948966
9.162684202194214,-0.8458437173185059,-0.251074651984982,2.2391538320292312,-0.35454379040986256,-0.07209549985697385,0.06520455965577437,-0.056620161949495,-0.08860599444629579,-0.012499659197904594,-0.5223547511774074,-1.5707963267948966
9.183246850967407,-0.8565045074768484,-0.2532791527491536,2.2410966507513677,-0.35622086091752597,-0.07481545701114266,0.06458810922892266,-0.05769807539659771,-0.0898008953085093,-0.012668119750833283,-0.4909388246415096,1.5707963267948966
9.202536821365356,-0.8636405345054018,-0.2547935005006344,2.242385868196549,-0.35738532401162065,-0.0766232193315428,0.06433308143348597,-0.05874270042946488,-0.09097125546049793,-0.012834276611315292,-0.5223547511774074,-1.5707963267948966
9.222426652908325,-0.870796840553618,-0.25634875895979214,2.243661929212813,-0.35847218405395365,-0.07857546149196196,0.06384028113763562,-0.058246056208389664,-0.09281779465409994,-0.012994507423569657,-0.500143806291895,1.110547244275617
9.242499113082886,-0.8779778996124015,-0.2579389532206377,2.2449361253638935,-0.35963201812818424,-0.0804500110848768,0.06357880732154177,-0.05773494900129192,-0.09463174464870437,-0.013152502273933171,-0.5315597328277928,-1.5707963267948966
9.262616634368896,-0.881574919706874,-0.2587516513534848,2.2455740313481747,-0.36014190016181724,-0.08151279661526273,0.06355732751379503,-0.05673541494038212,-0.09659704830672049,-0.013307334138997724,-0.500143806291895,1.5707963267948966
9.282531261444092,-0.8887890377302204,-0.260401356008474,2.2468425062193984,-0.3612665419429084,-0.08346410614812898,0.06328965082498059,-0.055727347229790454,-0.09852823005751402,-0.013459969376044559,-0.5315597328277928,-1.5707963267948966
9.302506685256958,-0.8960262732374856,-0.2620926608103031,2.2481053154063018,-0.3624051150573352,-0.08550264038617444,0.06300822044840072,-0.05516217673690078,-0.1001680894732827,-0.01360843238470051,-0.5006810836065516,1.5439324610620586
9.32243824005127,-0.9069258617585547,-0.26470365229630227,2.249988708999705,-0.3641435193308432,-0.08853970926421013,0.06257669607848161,-0.0561507519338735,-0.10105763938730168,-0.013753421116300268,-0.5320970101424498,-1.5707963267948966
9.342599868774414,-0.9142200265726761,-0.2664947162348963,2.251237482677225,-0.36527614888506765,-0.09056957794580783,0.06230019544643684,-0.05710679592188955,-0.1019256461547847,-0.013896289397826672,-0.5247723666209847,0.36623217607325564
9.362476825714111,-0.9178773066619711,-0.2674074232689243,2.251859962893306,-0.36590126951331586,-0.091643100364932,0.06216439212383269,-0.058392489935469354,-0.1014486465951501,-0.014035447260423651,-0.5561882931568825,-1.5707963267948966
9.382411003112793,-0.9252070945680008,-0.26926054306829306,2.253100434472955,-0.3670816938023089,-0.09366728042925991,0.06188230889857555,-0.05964430648704647,-0.1009689040657511,-0.014172530140636927,-0.5247723666209847,1.5707963267948966
9.402493000030518,-0.9325577480474856,-0.27115997799145236,2.254345776586973,-0.36819917934887264,-0.09584316829519979,0.061790700946240396,-0.060696904954964284,-0.10065698382140119,-0.014307072480391729,-0.5561882931568825,-1.5707963267948966
9.422430753707886,-0.9436268006022133,-0.27408723764165327,2.256187109734166,-0.369909879829917,-0.09905059460784556,0.061203137406952955,-0.06213673087302964,-0.09990922609613052,-0.014437224112558118,-0.5247723666209847,1.5707963267948966
9.442547798156738,-0.9510375197305043,-0.2760881815576852,2.257408276461042,-0.3711667123076829,-0.10104130641591437,0.06091310812722993,-0.06354052631629548,-0.09916205232325848,-0.014565370307508973,-0.5561882931568825,-1.5707963267948966
9.46253252029419,-0.9547480123468134,-0.2771114646757686,2.2580119981072633,-0.37169345775282225,-0.10224993900696729,0.06056726355409744,-0.06542889190946943,-0.09795775325973961,-0.014688565602115768,-0.5247723666209847,1.5707963267948966
9.482458353042603,-0.9621950910862842,-0.2791759750322988,2.2592203975495906,-0.3730205718361593,-0.10419710313009982,0.06027227651630896,-0.06727558774081129,-0.09675969816288636,-0.014809814437513167,-0.5561882931568825,-1.5707963267948966
9.502484321594238,-0.9659229164198859,-0.2802321287301455,2.259814482595108,-0.37354545074905576,-0.10542203893298045,0.059910594460343095,-0.06920253943203826,-0.09547697297249594,-0.014926124633171136,-0.5247723666209847,1.5707963267948966
9.522415399551392,-0.9809084719641085,-0.2845419643517397,2.262184669285816,-0.376033937016523,-0.10965933448286606,0.059003365751396655,-0.07021421029590734,-0.09605237028610822,-0.01503671740466535,-0.5561882931568825,-1.5707963267948966
9.542520999908447,-0.9884432592541571,-0.28675439902436484,2.263361721976365,-0.3774480485051495,-0.11158599407826343,0.05870154078083619,-0.0711911683944935,-0.09661076112727067,-0.015145474313266159,-0.5247723666209847,1.5707963267948966
9.562482595443726,-0.9922149722042681,-0.2878842894859242,2.2639434903004365,-0.3779896458175035,-0.11281477449725537,0.05842845202205977,-0.07212987942528831,-0.09715017666829323,-0.01525015983329562,-0.5561882931568825,-1.5707963267948966
9.582433700561523,-0.9997892519918736,-0.29016005013269314,2.2651090024192397,-0.3794413497049171,-0.11476303229633411,0.05812241686073726,-0.0730349109655865,-0.09767281292504351,-0.015353059238155997,-0.5247723666209847,1.5707963267948966
9.602479696273804,-1.0073838534672102,-0.2924839575245577,2.266266936698426,-0.3806998742526134,-0.1169344234859181,0.05776748529372906,-0.07471562224683403,-0.09770985406595618,-0.015452106025311505,-0.5561882931568825,-1.5707963267948966
9.622434139251709,-1.0188335443951668,-0.29603974334480676,2.2679937891510935,-0.3828096987960719,-0.11996566833401774,0.05732631404599799,-0.0757364236123327,-0.09689518699494588,-0.015548301870549548,-0.5366415267534217,0.9773383201730379
9.642602443695068,-1.026504952102419,-0.29845838152275556,2.2691371994444727,-0.38433436755263956,-0.12189543957079622,0.05701440036160844,-0.07672511330896316,-0.09608221996335803,-0.015642781066178033,-0.5680574532893194,-1.5707963267948966
9.662615776062012,-1.030348093562575,-0.29968599131493284,2.269709729870324,-0.384996110930819,-0.12296207928912581,0.05699993559727089,-0.07759459757168552,-0.09535216981521322,-0.015735302645757447,-0.5366415267534217,1.5707963267948966
9.682530403137207,-1.0380635911419265,-0.30216425470547703,2.2708465754381564,-0.3865564437291685,-0.12486182898658044,0.05668431841208943,-0.07843361756959595,-0.09462293624592395,-0.015826134920523944,-0.5680574532893194,-1.5707963267948966
9.702510118484497,-1.0458044166781795,-0.3046885713696118,2.271975780267664,-0.3879844138586659,-0.1269555530739608,0.05631843248771684,-0.07914276295384765,-0.09401224185502002,-0.015913233687420668,-0.5366415267534217,1.5707963267948966
9.722439050674438,-1.0574767294152219,-0.3085451138619388,2.273659897834416,-0.39028616915187725,-0.12992812667597395,0.05588449321615628,-0.07987263408307163,-0.09333709754671375,-0.0159976946699723,-0.5680574532893194,-1.5707963267948966
9.742569923400879,-1.0652984745277674,-0.31116229881970175,2.274774382610253,-0.39189067804907673,-0.13178811957834186,0.05556370823979091,-0.0805734204562257,-0.0926622410279891,-0.01608053312602606,-0.5366415267534217,1.5707963267948966
9.762577533721924,-1.06921983400835,-0.31248932812638697,2.275327265207269,-0.39266613792448357,-0.1328277887013902,0.05537860945931785,-0.08205175967176792,-0.09096380302371732,-0.016160396303608864,-0.5680574532893194,-1.5707963267948966
9.78261661529541,-1.077089663808883,-0.31516396404759195,2.2764316000722413,-0.394321645618522,-0.1346301829913646,0.05505461610817394,-0.08349280952285543,-0.08927767400766894,-0.016238675360511247,-0.5366415267534217,1.5707963267948966
9.80258584022522,-1.084989822907038,-0.3178819737863427,2.277525439181096,-0.39592451562834585,-0.1365967066866906,0.05464676442767523,-0.08469131554315514,-0.0878567118028677,-0.016313123822984017,-0.5680574532893194,-1.5707963267948966
9.822457313537598,-1.0969031283779613,-0.32202529825933407,2.2791569714540016,-0.398399679043892,-0.13939205677652264,0.05413864745730205,-0.08551007995326303,-0.08680392920261552,-0.016384567272348226,-0.5366415267534217,1.5707963267948966
9.84264850616455,-1.1048882770642308,-0.3248304302395907,2.280236462802423,-0.4001178192068218,-0.14111764826067227,0.053810254278680074,-0.08629896955456882,-0.08575603245089186,-0.016454499222744903,-0.5680574532893194,-1.5707963267948966
9.862523555755615,-1.108891904046203,-0.32625126080565964,2.280775272792252,-0.4009372198981304,-0.14211655010635119,0.05369769408360154,-0.08721703776718308,-0.08453707167888386,-0.016522210923490828,-0.5366415267534217,1.5707963267948966
9.883352756500244,-1.1209575464469532,-0.33055823651175437,2.282379151523566,-0.40350913024337093,-0.14480095751592537,0.05320982337621681,-0.08755135508903611,-0.08392988141619558,-0.016587148969769806,-0.5680574532893194,-1.5707963267948966
9.902513027191162,-1.1290452603908918,-0.33347100114861117,2.283440026305004,-0.4052632972825148,-0.14647348151250913,0.05287744316519591,-0.08786129681479146,-0.08332248435913663,-0.016650629796841454,-0.5366415267534217,1.5707963267948966
9.922402143478394,-1.137167705275215,-0.336422784310052,2.2844969076839265,-0.40701750198622355,-0.14827036981680716,0.05259437526683949,-0.08806371039371,-0.082815994817944,-0.01671141674482822,-0.5680574532893194,-1.5707963267948966
9.942659854888916,-1.1453256804013816,-0.3394047210738823,2.2855454489246227,-0.4087806087406504,-0.14992161390615447,0.05225955092139891,-0.08824314549385451,-0.08230819697977743,-0.016770781250233343,-0.5366415267534217,1.5707963267948966
9.962617635726929,-1.149418997526056,-0.3409100169371635,2.2860694994354835,-0.40969815937054177,-0.15079314486168804,0.05214615371246302,-0.08845624277135199,-0.08176627134815245,-0.016828107537103246,-0.5680574532893194,-1.5707963267948966
9.983184337615967,-1.1617514824136372,-0.3454717687843392,2.287627954084744,-0.4124086000635861,-0.15326774062912266,0.051691200665599374,-0.08920783153170098,-0.08056443178024793,-0.016883025678265565,-0.5366415267534217,1.5707963267948966
10.002529859542847,-1.1700175446145855,-0.34855315671265474,2.2886583979004236,-0.4142000272253331,-0.15486706952809454,0.051353002419898215,-0.08992999219864355,-0.07936962911644939,-0.01693657051976382,-0.5680574532893194,-1.5707963267948966
10.02245831489563,-1.178322015509014,-0.35166774604595075,2.289683989535824,-0.41606155465378364,-0.15648362795087428,0.05106227334890785,-0.09037706971890881,-0.07843431399977505,-0.016987522660265604,-0.5366415267534217,1.5707963267948966
10.042554378509521,-1.1866613505290358,-0.35481304331058194,2.2907018341684804,-0.4178733515236858,-0.15804299393448065,0.05072202454134901,-0.09079832451121615,-0.0775029405120463,-0.01703713535667599,-0.5680574532893194,-1.5707963267948966
10.062551975250244,-1.19084568117132,-0.35639869951971054,2.2912101006622163,-0.41881489101437747,-0.1588486145591513,0.050601531859060994,-0.09117107698152602,-0.07667229238651598,-0.017084830393042413,-0.5366415267534217,1.5707963267948966
10.082563877105713,-1.1992402367988109,-0.35959095103361705,2.2922187112192924,-0.42064183041271314,-0.16037377738782996,0.05025936923852842,-0.09151868256054665,-0.07584445919740285,-0.017131213499266194,-0.5680574532893194,-1.5707963267948966
10.102484703063965,-1.207672716652738,-0.36281602709884797,2.293222536333539,-0.4225081011216378,-0.16194384710807996,0.04996833886578515,-0.09167960444984558,-0.07520278304865699,-0.01717511592924022,-0.5366415267534217,1.5707963267948966
10.122554302215576,-1.2203905204857575,-0.3677089333491214,2.2947149168980387,-0.42529679170248785,-0.16421534885576897,0.0494826560221011,-0.09166265733267473,-0.07473564048980849,-0.01721655079699376,-0.5680574532893194,-1.5707963267948966
10.142608880996704,-1.2289147866805932,-0.37100815624524336,2.2957011240089065,-0.42712970195215993,-0.1657053792024624,0.049137921139888414,-0.0916249105485888,-0.07426717447588377,-0.017256728350617968,-0.5366415267534217,1.5707963267948966
10.162745714187622,-1.2331925493028415,-0.3726685211113075,2.2961930296004147,-0.4281006899499421,-0.16643032794187235,0.049005791400699356,-0.09160998518192894,-0.07377979334323778,-0.017295070859813032,-0.5680574532893194,-1.5707963267948966
10.182372093200684,-1.2460790591629876,-0.37769380998174107,2.2976562002005414,-0.4309127738207634,-0.16861551144054074,0.048507688784831235,-0.0914499084908432,-0.07335645121191599,-0.0173309211970151,-0.5366415267534217,1.5707963267948966
10.202500820159912,-1.2547155930198532,-0.38108076316916367,2.298622885462427,-0.4327400163602273,-0.17007838891345614,0.0481607219300431,-0.0912712585475051,-0.07293093498463513,-0.017365563389036373,-0.5680574532893194,-1.5707963267948966
10.222447156906128,-1.2633923484816287,-0.38449473892042885,2.2995840622318644,-0.43465298192477175,-0.17147666379452497,0.047847328474967865,-0.09059433965799583,-0.07234998583751534,-0.017397745806009786,-0.5366415267534217,1.5707963267948966
10.242529392242432,-1.2721034812405492,-0.38793870350069387,2.300537527165523,-0.43645799630302345,-0.17291786021171596,0.04749906153462462,-0.08990504173481072,-0.07176977976576655,-0.017428752775922065,-0.5680574532893194,-1.5707963267948966
10.262552738189697,-1.2764753698925875,-0.3896699065199552,2.301012484177415,-0.43742943495849873,-0.1735895711897899,0.04735103101811911,-0.08882254865547613,-0.07167529314348775,-0.017457972519709073,-0.5366415267534217,1.5707963267948966
10.283019304275513,-1.2896424022053599,-0.3949083632838263,2.302425614896122,-0.44021188934091476,-0.17569452828797988,0.04684013144422888,-0.08842338013990798,-0.0714991042818342,-0.01748471131139071,-0.5680574532893194,-1.5707963267948966
10.302460432052612,-1.2984642972777023,-0.3984365416665616,2.3033589188565142,-0.4419762354227427,-0.17712270550471002,0.046490179220351376,-0.0880086405004764,-0.07131776047884991,-0.017510323800649284,-0.5366415267534217,1.5707963267948966
10.322381258010864,-1.3073278749151247,-0.4019899063095478,2.304285814367521,-0.4438911426567287,-0.17846305182107686,0.04615278649305668,-0.08737426562009429,-0.07130106904686644,-0.017533443999972642,-0.5680574532893194,-1.5707963267948966
10.342650890350342,-1.316223129706821,-0.4055734260872796,2.3052053619219337,-0.44563218043922753,-0.1798888463480104,0.045801895524989485,-0.08672744482875275,-0.07127718841562207,-0.017555471046383362,-0.5366415267534217,1.5707963267948966
10.36249828338623,-1.3206875940559233,-0.40737311618662175,2.3056632571748623,-0.44660083661970484,-0.1805220109062047,0.04564812608388055,-0.0859851279350919,-0.07130971976666677,-0.017575828966460948,-0.5680574532893194,-1.5707963267948966
10.38329815864563,-1.3341282432415376,-0.41281774602238813,2.307024876450217,-0.4492865626678371,-0.18257140271503514,0.04512223704349985,-0.08532798892103119,-0.07127544135565439,-0.017593695106910008,-0.5366415267534217,1.5707963267948966
10.402465105056763,-1.3431309956717052,-0.41648342653479853,2.3079238013132573,-0.45098644914118496,-0.18399651128477437,0.044770193188955795,-0.08465862790552832,-0.07123426955712554,-0.017610516668777658,-0.5680574532893194,-1.5707963267948966
10.422388076782227,-1.352172915136851,-0.4201727204830869,2.3088161355386694,-0.45280575950394975,-0.18529812049043795,0.04442510035458191,-0.08410973806521205,-0.07107161836660089,-0.017624926252578093,-0.5366415267534217,1.5707963267948966
10.442598581314087,-1.3612458150029614,-0.42389288610823816,2.30970111165052,-0.454482352251332,-0.18671788220554442,0.04407246617279296,-0.08354728272378611,-0.07090367307925259,-0.017638323634233077,-0.5680574532893194,-1.5707963267948966
10.466311693191528,-1.365797941137872,-0.4257606303796371,2.31014161467492,-0.45540238981797804,-0.18733976030831476,0.04391428201666865,-0.08315674318971429,-0.07058955876394024,-0.017650173414861147,-0.5366415267534217,1.5707963267948966
10.48242974281311,-1.374922593463502,-0.4295215223919977,2.311016369540038,-0.4570614887629216,-0.1887483829151657,0.04356116829062134,-0.08275055009549104,-0.07027215530649202,-0.017661034870338075,-0.5680574532893194,-1.5707963267948966
10.502512454986572,-1.379500197374767,-0.4314100980046672,2.31145145127613,-0.45796250567372654,-0.18938307800837986,0.04339793358045817,-0.08201174857716177,-0.07032274521416208,-0.017670357346843416,-0.5366415267534217,1.5707963267948966
10.522479057312012,-1.3978880116404775,-0.4390386155833359,2.3131735484144755,-0.4613261874943727,-0.19211909327032076,0.04270702440540094,-0.08128946796848302,-0.070371557766751,-0.01767663637262819,-0.5680574532893194,-1.5707963267948966
10.542588949203491,-1.4071307445085908,-0.44289507465556155,2.3140241532035053,-0.4629446501986153,-0.19352695274864687,0.042353436685166,-0.08055473386768738,-0.0704131972192365,-0.017681980164259738,-0.5366415267534217,1.5707963267948966
10.56250548362732,-1.4117656811681871,-0.4448315024599189,2.314446607143556,-0.4637887208385793,-0.19415939534798266,0.04217828557350472,-0.08032203037130183,-0.06997118923209641,-0.01768579678997268,-0.5680574532893194,-1.5707963267948966
10.583079099655151,-1.4257168226099919,-0.4506854123015554,2.315703804901304,-0.4662325867854178,-0.19618839505635657,0.0416395480868259,-0.08009014611164868,-0.06952282140726027,-0.017687199565437052,-0.5366415267534217,1.5707963267948966
10.602551221847534,-1.4350574760141246,-0.454623054806214,2.316533058374041,-0.46783192060543777,-0.19757435621732397,0.0412857974711431,-0.07984024112598744,-0.06907306391796933,-0.01768771438135694,-0.5680574532893194,-1.5707963267948966
10.622395277023315,-1.4444305231647654,-0.45858579278366485,2.3173558747387224,-0.4694335304373419,-0.1988925409435632,0.04094195838923156,-0.079459008574583,-0.06872306544260601,-0.01768607418922965,-0.5366415267534217,1.5707963267948966
10.64255976676941,-1.4538350593572977,-0.46257736475210937,2.3181711768439595,-0.4710187645898652,-0.2002634805608285,0.040588260462711905,-0.07906174235876506,-0.06837046368146406,-0.017683575791402218,-0.5680574532893194,-1.5707963267948966
10.662492036819458,-1.458548823647363,-0.46458269218133796,2.318576414417706,-0.4717932154887711,-0.20092569543634398,0.040424454125779094,-0.0785037999097613,-0.06818064348655599,-0.01767977108327984,-0.5366415267534217,1.5707963267948966
10.68265700340271,-1.472737736055226,-0.47064094750193275,2.3197805986467004,-0.4741375330681375,-0.20296376475716865,0.039874788206901435,-0.07791861865007987,-0.06798179235584285,-0.017673546830650706,-0.5645749441882391,-1.3966708717408682
10.702567338943481,-1.4822360307721,-0.47471380566562615,2.3205745601570933,-0.47568994431067085,-0.20432137324119654,0.03952138628931892,-0.07732032744708477,-0.0677782814748945,-0.01766650981678522,-0.5331590176523413,1.5707963267948966
10.722384452819824,-1.4917650740282669,-0.4788133169749595,2.3213659490918594,-0.4772307345351415,-0.20566697570673248,0.039283377952212054,-0.0771820243454445,-0.06805960642357708,-0.017658190924953337,-0.5645749441882391,-1.5707963267948966
10.742539167404175,-1.5013251149707427,-0.4829402864963582,2.3221480856069587,-0.4787728365594189,-0.2070308696110565,0.03893030392856543,-0.07702508022725306,-0.0683275608535325,-0.01764907973309061,-0.5331590176523413,1.5707963267948966
10.762569904327393,-1.5061164100368236,-0.48501327714313847,2.3225378526308487,-0.47953023415975354,-0.207695584530072,0.038789828897049905,-0.07662873276424338,-0.06877713685080808,-0.017638945714254832,-0.5645749441882391,-1.5707963267948966
10.782440662384033,-1.515722313246426,-0.4891809734614155,2.323310122133978,-0.4810587125557486,-0.2090754944887238,0.038437157776004226,-0.07621646099338418,-0.06921129536734834,-0.017628037734774893,-0.5331590176523413,1.5707963267948966
10.802541017532349,-1.5205360177777225,-0.49127354425658976,2.3236943420024962,-0.48179657020679584,-0.20972304708659098,0.03828122575369807,-0.0757836115201059,-0.06963262376921382,-0.017616026983619422,-0.562800048121737,-1.482051523469785
10.822359800338745,-1.5398675051355348,-0.49971440452821453,2.3252115410762886,-0.4847958997782715,-0.2124188478699895,0.03759080038531295,-0.0750824543624394,-0.07019374775312534,-0.017601111253852747,-0.5313841215858393,1.5707963267948966
10.842591524124146,-1.5495783922662263,-0.5039768567963575,2.3259598378924364,-0.48629043534341787,-0.21382819292193023,0.03723893336744414,-0.07436907152000725,-0.07073794233323126,-0.017585469922872143,-0.560736276578313,-1.4676077496236895
10.862746953964233,-1.554444280688238,-0.5061162167100473,2.326332578871329,-0.48701005993382035,-0.2144682625919017,0.03710196701538925,-0.07394573528380224,-0.0710866148141287,-0.017568945531715247,-0.5293203500424148,1.5707963267948966
10.88240098953247,-1.5641992420490414,-0.5104198218032303,2.3270711055596243,-0.4884846142354012,-0.21589336056960143,0.03675075925814798,-0.07350716351981566,-0.07142076890656292,-0.017551712384722397,-0.5607362765783126,-1.5707963267948966
10.902515649795532,-1.5690878083666175,-0.5125794678993246,2.3274396885684787,-0.4892175203886823,-0.21652890607235256,0.03662846337260803,-0.0731406739564881,-0.07170350400076209,-0.017533729070488707,-0.5293203500424148,1.5707963267948966
10.922472476959229,-1.5887151547249558,-0.5212937992540678,2.328891405180587,-0.4921363842826045,-0.21929953457570586,0.0359355593919463,-0.07222001891252475,-0.07230615997872133,-0.017512851201003567,-0.5568752993194579,-1.3777474638521525
10.942677021026611,-1.5985722645559854,-0.5256942904729319,2.3296066152232666,-0.49357149791098753,-0.2207515374205184,0.03558551668208035,-0.07128974732306663,-0.07289119426129265,-0.017491309442079103,-0.5254593727835601,1.5707963267948966
10.96261739730835,-1.6035112705536265,-0.5279031347061142,2.329964093947579,-0.4942682049247181,-0.2214201275467366,0.03549663161242362,-0.07024643600290478,-0.0735613846172077,-0.01746933246898355,-0.5568752993194579,-1.5707963267948966
10.983498811721802,-1.6183717840893415,-0.53457594671378,2.3310223638736636,-0.49639302403180235,-0.22354898133088652,0.03499913061276158,-0.06929534378706606,-0.07416050568543416,-0.01744545747834139,-0.5254593727835601,1.5707963267948966
11.00246524810791,-1.6283134397625907,-0.539061797496204,2.3317188590177276,-0.49776934168705067,-0.22503803490352617,0.03465046548450755,-0.06833486319150815,-0.07474190463257539,-0.017420950273072718,-0.5568752993194579,-1.5707963267948966
11.022408485412598,-1.6382841632056555,-0.5435731854718062,2.3324079589983335,-0.4991721272062532,-0.22642905716002815,0.03428881161740026,-0.06743425827738353,-0.07526411975727143,-0.017394518222938634,-0.5254593727835601,1.5707963267948966
11.042524337768555,-1.648281032075749,-0.5481168534045617,2.3330902581194413,-0.5005117254639526,-0.22793942028628092,0.03394119061640293,-0.06652395777745454,-0.07576937228481885,-0.01736748136163181,-0.5539312257136828,-1.4235926465061333
11.06256365776062,-1.6532908172931915,-0.550397398785092,2.33342783497961,-0.5012030098930302,-0.2286348923033767,0.03374726630486063,-0.06513575782730743,-0.07723188910456512,-0.01733935121926163,-0.522515299177785,1.5707963267948966
11.082431554794312,-1.6633278119377115,-0.5549856389302543,2.3340993143401194,-0.5024918166994226,-0.2301938920120498,0.033400765465958056,-0.0637444007850675,-0.07866283124823566,-0.01731063532673035,-0.5539312257136828,-1.5707963267948966
11.102551937103271,-1.6683580748348288,-0.5572882538146229,2.3344340791731715,-0.5031843478998558,-0.23088986058472574,0.03327254875762878,-0.06299451889241892,-0.07902365794126222,-0.01728132793438468,-0.522515299177785,1.5707963267948966
11.122409343719482,-1.6885403796880984,-0.5665804339141366,2.3357509370985734,-0.5058089469482894,-0.23389057334619748,0.032570988433151045,-0.06248876866486266,-0.0792115209793498,-0.01724910473703979,-0.5532031962188908,-1.5343948520552875
11.142520189285278,-1.6986690219823313,-0.5712740995343113,2.3363989092216095,-0.507053551229354,-0.23547656990182905,0.03222633308669805,-0.061969396439616735,-0.07938589123527422,-0.01721633990261143,-0.521787269682993,1.5707963267948966
11.162457466125488,-1.708824673507222,-0.5759952591451453,2.337039371158741,-0.5083391553147575,-0.23696509983332684,0.03186617904314782,-0.06143032134936503,-0.07958315026001271,-0.017181778429402668,-0.5508458228597743,-1.452927658839065
11.182572841644287,-1.7190039936135697,-0.5807496571584959,2.3376733937188137,-0.509570566179043,-0.23853200769210794,0.031528864417358506,-0.0607802013161229,-0.07981449897428677,-0.017146180147349522,-0.5194298963238762,1.5707963267948966
11.202488899230957,-1.729207517043132,-0.5855362749290335,2.338300544169569,-0.5107795702181528,-0.24013049346573462,0.031186300999006367,-0.06011823495872493,-0.08003173132993108,-0.0171100779589174,-0.5508458228597739,-1.5707963267948966
11.222428798675537,-1.7394351889852928,-0.5903538762340355,2.3389220986490424,-0.511976877824931,-0.2417097863567551,0.030862736866299704,-0.059474131661399594,-0.08022943262670992,-0.017072489520838546,-0.5194298963238762,1.5707963267948966
11.242567300796509,-1.7496865778396642,-0.59520413033686,2.339535941418444,-0.5131598214223557,-0.24331623689955276,0.030521666972910148,-0.05881827604339983,-0.08041332589772043,-0.017034419863212486,-0.5490015605224454,-1.4785832099284635
11.262940406799316,-1.7548209257876817,-0.5976411492601222,2.339839817907672,-0.5137350254784687,-0.2441186339770762,0.030341161557936716,-0.057999584198562056,-0.08069214628971533,-0.016995548687370306,-0.5175856339865472,1.5707963267948966
11.283449411392212,-1.7702592990764063,-0.6050008804602246,2.3407429638454778,-0.5154732801162856,-0.24653855143953946,0.029847251389533522,-0.05702623360508994,-0.08105147797223711,-0.016954920566133066,-0.549001560522445,-1.5707963267948966
11.3024742603302,-1.7805801046309409,-0.609947884950466,2.341336520620028,-0.5166040039015408,-0.24816304275214793,0.029508562980043153,-0.056044804035358026,-0.08139502948080586,-0.016913846255318523,-0.5175856339865472,1.5707963267948966
11.322396993637085,-1.7909236580288292,-0.6149273135139989,2.3419221592719226,-0.5177237609589637,-0.2497913420244809,0.029135578027043668,-0.0549483898558785,-0.08180070173625509,-0.01687099783919356,-0.5457111988204697,-1.406278241696124
11.343129396438599,-1.801289049501255,-0.619939526718961,2.3425014995105005,-0.5188117095685427,-0.2514312760355327,0.02879859006049747,-0.05384537637201174,-0.08218997216080327,-0.016827728968963788,-0.5142952722845715,1.5707963267948966
11.362463235855103,-1.806480376180127,-0.6224578903615011,2.34279028427205,-0.5193552619143695,-0.252254959914333,0.02868726277767577,-0.052733293061216574,-0.0825487062792382,-0.016784247637728407,-0.5457111988204693,-1.5707963267948966
11.382426738739014,-1.8168779536497874,-0.6275195224140553,2.3433606755973995,-0.5203987589098635,-0.2539093876503965,0.028352016065158796,-0.05161545145890078,-0.08289140034441943,-0.01674035534675465,-0.5142952722845715,1.5707963267948966
11.402543067932129,-1.822085897917678,-0.6300625021817087,2.343643763270465,-0.5209437232627951,-0.25473439995422265,0.0281895019125625,-0.050446781640498976,-0.08325919244168972,-0.016695893017128597,-0.5457111988204693,-1.5707963267948966
11.422501564025879,-1.8429671466563404,-0.6403179204616626,2.344757186826177,-0.5230263501346119,-0.2580550625252023,0.02749804501235525,-0.04916227702007824,-0.08365179558620137,-0.016648613879104088,-0.5142952722845715,1.5707963267948966
11.442548513412476,-1.8534374203130628,-0.6454957774132121,2.345303821173973,-0.5239967226946189,-0.25973188590247354,0.027165548588596114,-0.04787442489160815,-0.08402777871884151,-0.01660096750271369,-0.5423113943502695,-1.4008061032849017
11.46250033378601,-1.8586809917377953,-0.6480972077764248,2.345573386559345,-0.5244974990801825,-0.26057357055085784,0.026970550254665677,-0.04645406663998105,-0.084474324575959,-0.016552584967180553,-0.5108954678143718,1.5707963267948966
11.482423782348633,-1.8691801377594128,-0.6533256029547254,2.3461094902905772,-0.5254123630548145,-0.2622673779795772,0.02663998531786882,-0.04503205927792241,-0.08490353604886179,-0.016503850217507297,-0.5423113943502695,-1.5707963267948966
11.502561807632446,-1.8797010302745487,-0.6585872485736942,2.346641462811785,-0.5263934666122713,-0.26395134990941654,0.026369648397023805,-0.04356767446109449,-0.08535032421235264,-0.016454179728222315,-0.5108954678143718,1.5707963267948966
11.522360563278198,-1.8955151279949072,-0.6665436109675996,2.3474241009223653,-0.5277642450263123,-0.26650436497156194,0.025845412518879736,-0.0420307264319095,-0.08647867667170338,-0.016402584146715277,-0.5423113943502695,-1.5707963267948966
11.542513847351074,-1.9060787165911435,-0.6718910677856844,2.3479377321113297,-0.5285894923612545,-0.2682449820618953,0.02551787940899827,-0.040494056184126645,-0.08757824640243748,-0.01635067473085255,-0.5108954678143718,1.5707963267948966
11.562915563583374,-1.9166621735747609,-0.6772717223783516,2.3484432017301655,-0.5294768344100806,-0.2699511725614074,0.025145253343149567,-0.0389792355283237,-0.08798176026188315,-0.016297137858375135,-0.539359484907787,-1.4232008546707586
11.582531929016113,-1.92725940512707,-0.6826883682214017,2.348942850953088,-0.5302412717696472,-0.2717146994174683,0.02481984837138434,-0.037464520687595815,-0.08836806378699807,-0.016243311209468245,-0.5079435583718892,1.5707963267948966
11.60256028175354,-1.9325660840179686,-0.6854081433067162,2.3491911491075497,-0.5306682920177426,-0.2725572339608435,0.02469414343817001,-0.03572552398944382,-0.08944866776905841,-0.01618935600664365,-0.539359484907787,-1.5707963267948966
11.62241268157959,-1.9485054722541415,-0.6936231118123986,2.3499248536947572,-0.5318169490231479,-0.2751920386578657,0.02420804543607336,-0.03381622704771448,-0.09053355576895308,-0.01613376578819858,-0.5079435583718892,1.5707963267948966
11.642679691314697,-1.9591484474455032,-0.6991451301865248,2.350405791569477,-0.5324742225939156,-0.27701331937351376,0.023885928211716586,-0.031911971577144885,-0.0915897436418392,-0.016077913077195007,-0.539359484907787,-1.5707963267948966
11.662537336349487,-1.9644775820409053,-0.7019177520742312,2.3506432697926747,-0.5328616323856348,-0.27787134963863513,0.023715973027483257,-0.030656890215839408,-0.09178396659757554,-0.016021649455745773,-0.5079435583718892,1.5707963267948966
11.682552576065063,-1.9751408622847668,-0.7074935480528182,2.3511143886868133,-0.5334622010936165,-0.279708845284163,0.02339610476892545,-0.02939961878295066,-0.09196308706923749,-0.01596513472266205,-0.5367970680742635,-1.4426754851187162
11.702534437179565,-1.9858217664565143,-0.7131022730516948,2.3515767015092592,-0.5341824523009104,-0.28145704428832385,0.0230212848043114,-0.02830402324970921,-0.09208878829406716,-0.015907031608579605,-0.5053811415383658,1.5707963267948966
11.722429275512695,-2.00186261357512,-0.7215861388931774,2.3522615238827207,-0.535094501551032,-0.2841862032786231,0.02258274446743941,-0.02715937431827572,-0.09220990191880371,-0.015847648424778368,-0.5367970680742635,-1.5707963267948966
11.742632865905762,-2.0125698589997847,-0.7272883122978098,2.3527100132118886,-0.5356262140198343,-0.28603149322529187,0.022266387100754213,-0.02601130636593582,-0.0923167153080929,-0.01578805303869137,-0.5053811415383658,1.5707963267948966
11.762651205062866,-2.017928496391706,-0.7301529428906767,2.3529313610583875,-0.5359029459982406,-0.286949582425646,0.02209900293836748,-0.024654520611937347,-0.09253073540937208,-0.015728132002273125,-0.5360620158510008,-1.53404371563175
11.78261399269104,-2.034017830480968,-0.7388032501312317,2.353586351302375,-0.536663447665882,-0.2897325818696815,0.021601014248483364,-0.02333469230234923,-0.09268631685632932,-0.015666503283410654,-0.504646089315103,1.5707963267948966
11.802515506744385,-2.0447556783427485,-0.744616448662287,2.354015242404372,-0.5371169363364185,-0.2915877404210225,0.021288301986287225,-0.022014040100201148,-0.092827073633306,-0.01560469279288516,-0.5334632701965134,-1.4408590440705193
11.822415351867676,-2.0555032373123887,-0.7504674270273383,2.3544378038888722,-0.537565205224658,-0.29346170761637946,0.020977292116799863,-0.020485001291077658,-0.09290655929977765,-0.01554182298412771,-0.5020473436606157,1.5707963267948966
11.842623949050903,-2.066258536614666,-0.7563552470937154,2.3548542455661443,-0.5379596371101809,-0.2953205175491636,0.02066708572305446,-0.01895863367024691,-0.0929721188198511,-0.015478789208639638,-0.5334632701965134,-1.5707963267948966
11.866315126419067,-2.0716397210134794,-0.7593136682084248,2.355061992005266,-0.5381536366351024,-0.2962677553373591,0.02055990543582673,-0.017419035557353215,-0.09308609223347805,-0.01541592392451457,-0.5020473436606157,1.5707963267948966
11.882635831832886,-2.0877938007550982,-0.7682442588592311,2.3556708734444554,-0.5387097759456702,-0.2990801501003703,0.020070292166501674,-0.015932938273378598,-0.09312136681846897,-0.015351408108714585,-0.5330231669805086,-1.5487911659946452
11.902514457702637,-2.098571083905697,-0.774244487815501,2.356069213314196,-0.5390135932761366,-0.3009428184241288,0.019763910324847735,-0.014449187124630771,-0.0931432372131735,-0.015286752974687847,-0.5016072404446108,1.5707963267948966
11.922396421432495,-2.1093557270529546,-0.7802833025365048,2.356460149900934,-0.5393273036154294,-0.302839113614707,0.019429066315766748,-0.013018717094119732,-0.0931276717389099,-0.015220898899339641,-0.5305286151774866,-1.4460687366437908
11.942542552947998,-2.1201447815980767,-0.7863587086649572,2.3568456914437586,-0.5395733889422456,-0.3047014046766959,0.019125307880688776,-0.011590131041594866,-0.09309930668385881,-0.015154924722885111,-0.49911268864158886,1.5707963267948966
11.96268081665039,-2.125541803582286,-0.7894112274575991,2.357037231959148,-0.5396962527207648,-0.30565511814889096,0.019014281595976665,-0.010234001845644325,-0.09292670853841423,-0.015089142931434006,-0.5305286151774871,-1.5707963267948966
11.98244595527649,-2.1363376851066445,-0.795542903113193,2.3574145041537196,-0.5398873845047263,-0.3075118359403157,0.018713157518885214,-0.008879439039465406,-0.09274326844981452,-0.015023245660468615,-0.4991126886415893,1.5707963267948966
12.002530097961426,-2.141738211567169,-0.7986235003986583,2.3576011780241712,-0.5399968107437337,-0.30846222050100314,0.018565972620878193,-0.0074490671948213225,-0.0926052244411621,-0.014957278523232342,-0.5305286151774871,-1.5707963267948966
12.022415161132812,-2.163346480270891,-0.8110377796990729,2.3583308366766182,-0.5403385353257044,-0.3122078066957252,0.017943279138216583,-0.005961574869339624,-0.09239784202816535,-0.01488891013266731,-0.4991126886415893,1.5707963267948966
12.042534112930298,-2.174154344313507,-0.8173004010552029,2.358686729039283,-0.5404429231170327,-0.3140536029556034,0.01764618529112909,-0.004477829306955666,-0.09218005446580202,-0.014820461284192012,-0.5258805461029374,-1.3383928730674066
12.062479019165039,-2.179559331028055,-0.8204468148215007,2.35886114322485,-0.5404838569672775,-0.3150100979323634,0.017469678197627108,-0.0030254626340981143,-0.09194300826274591,-0.014751778267172111,-0.4944646195670397,1.5707963267948966
12.082508325576782,-2.1903695166143438,-0.8267653890773863,2.3592075910155965,-0.5405298723667753,-0.3168465041052761,0.017175330058516743,-0.0015766743112103083,-0.09169594390143823,-0.01468302385987888,-0.5258805461029379,-1.5707963267948966
12.10252332687378,-2.2011824678158165,-0.8331232306345918,2.359552625065553,-0.5406001252817799,-0.31874418756689155,0.016985500312524753,-8.180842982251504e-05,-0.09157408227340244,-0.014614154011011423,-0.49446461956704013,1.5707963267948966
12.122361421585083,-2.2174017784226505,-0.8427283957514708,2.360055320124347,-0.5406251912184561,-0.3215365225039303,0.016539199925408827,0.0014666707636406702,-0.09146010572766755,-0.014543922941073689,-0.5258805461029379,-1.5707963267948966
12.142465591430664,-2.228213885918814,-0.849177410045235,2.3603832000226928,-0.5405804126616384,-0.32336448837735315,0.016249024169053054,0.0030103915749033405,-0.09133455820376397,-0.014473644986420207,-0.49446461956704013,1.5707963267948966
12.162662506103516,-2.239025968452534,-0.8556648680431471,2.36070410275613,-0.5405360052260292,-0.32523308538986906,0.015924188585226984,0.0043968209730432415,-0.09080895372434823,-0.014402296852725439,-0.5258805461029379,-1.5707963267948966
12.183178663253784,-2.249836158409886,-0.8621883707098934,2.361019531248145,-0.5404471972285663,-0.32707230231312756,0.01562776319367576,0.005989652784776841,-0.09082438565705794,-0.014330478041369624,-0.49446461956704013,1.5707963267948966
12.20258378982544,-2.260643798504664,-0.8687479819993614,2.3613292252054063,-0.5403115207805337,-0.3288888339234381,0.015341871999604038,0.007577093370713493,-0.09082657371817912,-0.014258637909660128,-0.5224577356501174,-1.3996558041538654
12.222423553466797,-2.2714496642893187,-0.8753455770718146,2.3616315135554404,-0.5401753548284003,-0.3307412820409632,0.015028777730967002,0.009271555890378496,-0.09037046097723388,-0.014185828558768312,-0.4910418091142197,1.5707963267948966
12.242611646652222,-2.2822512044138414,-0.8819784460639907,2.3619292567985553,-0.5399730296366237,-0.332544074597918,0.014745789294529719,0.01095995202394681,-0.08990768802608691,-0.01411301437023287,-0.5224577356501179,-1.5707963267948966
12.262881755828857,-2.287651314098616,-0.8853093035370516,2.362077962836386,-0.5398750211227284,-0.33346912685338786,0.014654035078301498,0.012608077822549982,-0.08987031605410081,-0.014040652672377725,-0.49104180911422013,1.5707963267948966
12.282485723495483,-2.298446183373199,-0.8919966570185138,2.3623682402317066,-0.5396064354298066,-0.33526605492631256,0.014373945670685636,0.014249349662018391,-0.08982040717423297,-0.013968287620729854,-0.5224577356501179,-1.5707963267948966
12.302532434463501,-2.309238802757864,-0.8987215898171313,2.362651610171201,-0.5393925136593336,-0.3370964307236867,0.014066737969035277,0.01580857014799845,-0.08915924187686175,-0.01389499208113523,-0.49104180911422013,1.5707963267948966
12.322367668151855,-2.32541556060983,-0.9088755364457674,2.363065761678678,-0.5389631951465835,-0.3397967950995648,0.013604164723638621,0.017462126587412623,-0.08897265485293568,-0.01382019225364054,-0.5192195743177148,-1.4088882601747343
12.3424654006958,-2.3361912222294845,-0.9156892539112208,2.3633350859197857,-0.5385974802347335,-0.3415742942904613,0.013328508614714607,0.019108101983534305,-0.0887755092098275,-0.013745423975781724,-0.48780364778181706,1.5707963267948966
12.362560272216797,-2.341577467811203,-0.9191101951655386,2.363469039956912,-0.538428082062942,-0.34247436302893697,0.013242473009789682,0.020481934013579894,-0.0876974069282459,-0.013671183623865784,-0.5192195743177148,-1.5707963267948966
12.382660150527954,-2.3523418417431725,-0.9259771500963919,2.3637311601281428,-0.5380047494459606,-0.344217540544128,0.012969791474130452,0.021850440493535822,-0.08662055338088658,-0.013596975369617863,-0.48780364778181706,1.5707963267948966
12.402509927749634,-2.3577226691187803,-0.9294248347573757,2.363860502005943,-0.5378236104048587,-0.3451113459760653,0.012838703338722984,0.023509867234361853,-0.08576480397552015,-0.013522960120746177,-0.5192195743177148,-1.5707963267948966
12.422356843948364,-2.3792201635533523,-0.9433019826968239,2.3643618330690734,-0.5369494551993045,-0.34863520663152753,0.012263324478132368,0.02503242983282885,-0.08472799378345834,-0.013446752140399474,-0.48780364778181706,1.5707963267948966
12.44252324104309,-2.3899540450379004,-0.950291563360425,2.3646044152856294,-0.5364336427541108,-0.3503194072246837,0.011995150996288258,0.026547580476069255,-0.08369224275112337,-0.013370606501948566,-0.5150492641843449,-1.3622808201263936
12.462514162063599,-2.3953178594979168,-0.9538014631651717,2.364722609921332,-0.5361813098622511,-0.3512155551746862,0.011836307462376135,0.0275225418330213,-0.08215103173242788,-0.013294490529795904,-0.4836333376484472,1.5707963267948966
12.48242974281311,-2.4060359162506053,-0.9608421021107408,2.3649566822434736,-0.535621119622506,-0.35284322754546266,0.011571178244788684,0.028496276861695036,-0.08061748038707275,-0.013218442641409762,-0.5150492641843449,-1.5707963267948966
12.50256061553955,-2.416744484340773,-0.9679210922885265,2.3651892848081992,-0.5350866441299028,-0.3545957949535047,0.011395033175233354,0.02933793949448361,-0.07901227528161474,-0.013142439854859782,-0.4836333376484472,1.5707963267948966
12.522398710250854,-2.432783890905853,-0.9785992593901996,2.3655245112695353,-0.5341936510748061,-0.35709231536787434,0.010981202462536498,0.03062648317351067,-0.07787410519802469,-0.013065234722137884,-0.5150492641843449,-1.5707963267948966
12.54257607460022,-2.4434615529836763,-0.985756604782336,2.365741527414387,-0.5335682786178453,-0.3586384393953127,0.010720669075280732,0.031909910160335904,-0.07673877007928966,-0.012988118955353215,-0.4836333376484472,1.5707963267948966
12.562557458877563,-2.448794669302444,-0.9893509885274647,2.365847461955283,-0.5332103630022328,-0.3595121488281626,0.010571165098097053,0.03308245894511655,-0.07545400019998451,-0.01291111690483207,-0.5134811815329927,-1.4923921942272766
12.582460880279541,-2.459452182097992,-0.9965562369006293,2.3660563081626353,-0.5325370212037873,-0.36100842244384096,0.010313711997088141,0.03425106359221032,-0.0741741867239843,-0.012834208930936127,-0.48206525499709496,1.5707963267948966
12.602503299713135,-2.4647756284342535,-1.0001744745522438,2.3661577904940043,-0.5321760359854951,-0.3618660522487345,0.010160804079521402,0.03562863465633704,-0.07307084052289828,-0.012757385287406728,-0.5134811815329927,-1.5707963267948966
12.62252163887024,-2.486035055154616,-1.0147145489202936,2.366554249190872,-0.5307584132801603,-0.364950645977904,0.009645891994993737,0.03707360486472308,-0.07227231366291328,-0.012678725391950234,-0.48206525499709496,1.5707963267948966
12.642500638961792,-2.496642712736784,-1.0220279630097862,2.3667446365236056,-0.5300025529549655,-0.3663880973778126,0.009393103072338696,0.03851119961014985,-0.0714726358744122,-0.01260018720396544,-0.507252030231196,-1.2593387617050533
12.662477493286133,-2.501940638098749,-1.0256981523455795,2.36683729745915,-0.5296015060437548,-0.36716904698164693,0.009249508182853637,0.03973195315339515,-0.07036277003183002,-0.012521831429129819,-0.4758361036952983,1.5707963267948966
12.682541370391846,-2.5125246406976407,-1.0330555320010288,2.3670197884739665,-0.5287947014788469,-0.3685652292010629,0.008999854066282889,0.040947663230910245,-0.06925596134052767,-0.012443601195390064,-0.5072520302311965,-1.5707963267948966
12.702537536621094,-2.523093605594242,-1.0404445976648702,2.3672032616822025,-0.527996584049736,-0.37003720955029623,0.00888532887353587,0.04217853107380149,-0.06809488592385793,-0.012365867450114133,-0.4758361036952987,1.5707963267948966
12.72241473197937,-2.538915113612429,-1.0515786096395716,2.3674632253758663,-0.5267370515684506,-0.37213525617095083,0.008486609325260446,0.043386824401420485,-0.06708670863229513,-0.012286980233605487,-0.5072520302311965,-1.5707963267948966
12.742502689361572,-2.5494410969900874,-1.0590346649879048,2.367630505418404,-0.5258572761533901,-0.37346692440684187,0.00824165741442801,0.044589837702003775,-0.06608043202909593,-0.012208234461695406,-0.4758361036952987,1.5707963267948966
12.762702703475952,-2.554697319710709,-1.0627741896797036,2.367711772880587,-0.5253971048280405,-0.3741627445115373,0.008089307270701725,0.04572791201262561,-0.06518015165593907,-0.012129611390702165,-0.5072520302311965,-1.5707963267948966
12.78250789642334,-2.5651960405846164,-1.0702704206085396,2.3678711383379754,-0.5244712044039681,-0.3754573492393366,0.007847500059112137,0.04686135969549441,-0.06428041200140011,-0.012051134101025856,-0.4758361036952987,1.5707963267948966
12.802485466003418,-2.575676918962035,-1.0777949870840131,2.3680235398451295,-0.5235437540842033,-0.3767981832602163,0.007547499354768161,0.04815928399110092,-0.06348893756080015,-0.011971809589623076,-0.5042672985936902,-1.421559744919576
12.822412490844727,-2.591362125037381,-1.0891284371019698,2.3682432154777597,-0.5221048360395649,-0.3787211224602299,0.00716170077803005,0.0493656691967114,-0.0626745228406971,-0.011891404075304101,-0.4728513720577925,1.5707963267948966
12.842654943466187,-2.60179426848171,-1.0967153401448946,2.3683840765641104,-0.5211055059755324,-0.37996646601995915,0.0069246752911159,0.05056639468347452,-0.06185977936479314,-0.011811173857860763,-0.5042672985936907,-1.5707963267948966
12.862550973892212,-2.6070029327162265,-1.100518121906999,2.3684541415024274,-0.520593369878239,-0.380577678513044,0.006837614866470774,0.05169419338598752,-0.06110531078364361,-0.011731563657448953,-0.47285137205779293,1.5707963267948966
12.883743524551392,-2.6225982908428813,-1.1119630010283028,2.368653074797582,-0.5190569185852554,-0.382403856633842,0.006460027881295686,0.05268100734455386,-0.060218929988275986,-0.011650911408884163,-0.5003126795112576,-1.3730653726732323
12.902465581893921,-2.632968827397518,-1.1196230628872073,2.3687799505403055,-0.5179934589644981,-0.3835993768100703,0.006227814602550991,0.0536643815187532,-0.05933319615479712,-0.011570447950990551,-0.4688967529753598,1.5707963267948966
12.922393083572388,-2.6433181400487755,-1.1273062745385654,2.368904441296274,-0.5169139571368955,-0.3847647956286125,0.006062098224727648,0.05480868338676662,-0.058700397465795424,-0.011490120675562621,-0.500312679511258,-1.5707963267948966
12.942498683929443,-2.6536453814345053,-1.135013268219571,2.369023390582155,-0.5158063848566257,-0.38593245485399486,0.005833097478818973,0.05594765735207471,-0.058065112430561554,-0.011409986040365375,-0.46889675297536026,1.5707963267948966
12.962482929229736,-2.6588006087600333,-1.1388748240997055,2.369081528005546,-0.5152356662116644,-0.3864874030732042,0.0057232436870295325,0.05707339819590605,-0.05749544615012943,-0.011330305197523668,-0.500312679511258,-1.5707963267948966
12.98247241973877,-2.66909383262164,-1.1466160331093112,2.3691937321206478,-0.514082985235708,-0.3876315881218644,0.005497432782142621,0.05819381234256834,-0.05692251690302624,-0.011250817499401109,-0.46889675297536026,1.5707963267948966
13.002607583999634,-2.674232567136618,-1.1504943165090915,2.3692480379306615,-0.5135145731573302,-0.3881701505174668,0.005382949831803852,0.05928078172042913,-0.05647265920056706,-0.01117173719353206,-0.4971162383091494,-1.4109742666894576
13.02245569229126,-2.6947279973884557,-1.1660644074231215,2.3694528640550843,-0.5111874348283673,-0.3903744276228309,0.004919705758010961,0.0603904738998101,-0.055991109372863244,-0.011091000997906723,-0.46570031177325166,1.5707963267948966
13.04265832901001,-2.7049395942765213,-1.1738830618778497,2.3695490453416967,-0.5099685727174191,-0.3914893982783311,0.004698691306437635,0.061494852288939104,-0.05550523834467049,-0.01101048004217943,-0.4969378172519936,-1.5618752739370967
13.062467813491821,-2.7100366794816835,-1.1777987210137741,2.369597209442975,-0.5093571353238973,-0.39198122921604295,0.0046380510926286094,0.06254405206364246,-0.054882350343095784,-0.010930773676626702,-0.46552189071609584,1.5707963267948966
13.082521200180054,-2.7202112436830466,-1.1856492804197962,2.369687789613264,-0.5080958042725996,-0.393072626935624,0.004420230918343516,0.06358821415934102,-0.054257015543003564,-0.010851279051769207,-0.4937461753024257,-1.411214229316493
13.10251498222351,-2.730361996900467,-1.1935191904009752,2.369773392174042,-0.5068544358222764,-0.3940934888516605,0.0041937453634271855,0.0645275643468353,-0.05355069160619997,-0.010771442870737044,-0.46233024876652795,1.5707963267948966
13.122437715530396,-2.745539319977648,-1.205364924532525,2.369896436796086,-0.5049307085963821,-0.3956602764752731,0.003927997957325189,0.06545033519751918,-0.05273518781316531,-0.010691276478485293,-0.4937461753024257,-1.5707963267948966
13.142528533935547,-2.755624782770505,-1.2132886227391257,2.369972863832981,-0.5036125085188212,-0.39670682627366277,0.0037149721947831262,0.06636898645666892,-0.05191981464146567,-0.010611337718035397,-0.46233024876652795,1.5707963267948966
13.162668466567993,-2.7606576901178594,-1.2172571638272356,2.370009604050155,-0.5029457360408908,-0.3971848057267888,0.0036103135948213146,0.06692109740574216,-0.0508091830168221,-0.010531886282867243,-0.4910927255882802,-1.438123841087613
13.182426691055298,-2.7707031838107374,-1.2252109479368696,2.3700797092301826,-0.5016017928107636,-0.39818991650196806,0.003400468487795616,0.0674732280654904,-0.049702562536952676,-0.010452662337652595,-0.45967679905238246,1.5707963267948966
13.202514410018921,-2.7757160734586575,-1.229195233363829,2.3701128196782375,-0.5009282898428571,-0.39867539155506093,0.0032915327818238064,0.06793228968342878,-0.04859704654107872,-0.0103738807310847,-0.4910927255882802,-1.5707963267948966
13.222374677658081,-2.7956984910545915,-1.2451829310731473,2.370237525207763,-0.49819679519494525,-0.40065140918664094,0.0028981664473366926,0.06803516067758086,-0.04716723956103538,-0.010293841154992031,-0.45967679905238246,1.5707963267948966
13.24252700805664,-2.8056488128213073,-1.2532052977939647,2.370293435092211,-0.496835022121259,-0.4015805241704437,0.00269308798006315,0.0681429668219971,-0.04574562177585044,-0.010214046366750378,-0.4860585808040119,-1.319089087581471
13.262570142745972,-2.810612204335463,-1.2572243960818348,2.37031900938404,-0.49610384898294135,-0.40205639301150436,0.0025739429256069813,0.0685537755454316,-0.04446746950368213,-0.01013463245831828,-0.4546426542681141,1.5707963267948966
13.283630847930908,-2.825462323777157,-1.2693085708801752,2.370395299235425,-0.49398020472857107,-0.4034524461453647,0.0023733586493276163,0.06918569358681749,-0.043432864791255785,-0.010055290208594376,-0.4860585808040119,-1.5707963267948966
