t,x,y,z,vx,vy,vz,ax,ay,az,yaw,yaw_dot
3.6333224773406982,1.3148977032538377e-06,-9.56166860862628e-07,2.008000442373861,0.0001968524634368648,-0.00014298100870034478,8.005194807641583e-05,0.01960888025851707,-0.014209403145832583,0.007954781857985364,-0.031415926535897754,-1.5707963267948966
3.6531965732574463,5.210121600642144e-06,-3.6318438157987634e-06,2.0080000216764207,0.0005849701066747137,-0.0004022631879399138,0.0001466300507872506,0.03880896744248494,-0.025940127699222288,0.01549077446516941,-0.06283185307179551,-1.5707963267948966
3.6732161045074463,2.592875505009135e-05,-1.7624851294229038e-05,2.0080065409016306,0.0015493909905587504,-0.001034653809842948,0.0005294853383669192,0.05755836491289512,-0.037225093029652094,0.022748691553456088,-0.09424777960769326,-1.5707963267948966
3.6931912899017334,1.444384667583171e-05,-9.241755779399518e-06,2.007907909549408,0.0013865813487087784,-0.000894691434001952,-0.0021776259248229824,0.07510065446622298,-0.048713754135908595,0.02966204736985789,-0.12566370614359101,-1.5707963267948966
3.7133781909942627,5.834417869697266e-05,-3.7621419350657895e-05,2.0078707370826847,0.0030605338898919638,-0.0019800512787365764,-0.0015174579214079756,0.09222533233893986,-0.059746754312332624,0.036310949670053196,-0.15707963267948877,-1.5707963267948966
3.733257293701172,3.380501963842018e-05,-2.1027015753697917e-05,2.007711700930083,0.0024010283682865505,-0.0015454056312035516,-0.00523220494906125,0.10799714052346533,-0.07170689640287359,0.042712453196228226,-0.18849555921538652,-1.5707963267948966
3.753164529800415,0.00010433734969971702,-6.184100776123507e-05,2.0073869340470534,0.0041036168572052036,-0.0024530995519511717,-0.006946321712681544,0.12276755993785397,-0.06829739314619825,0.04888973476437492,-0.21991148575128427,-1.5707963267948966
3.773240804672241,0.00021193005982939828,-0.000124335346088765,2.0072581848831956,0.0067037015871642186,-0.0037849807627139695,-0.0059088353077253125,0.13718184727004892,-0.06489134615617087,0.05481759651790521,-0.25132741228718203,-1.5707963267948966
3.79318904876709,0.00023048309357917663,-0.00013291757185900872,2.007153046621851,0.006603976480333928,-0.0035714523663778483,-0.006698768847512427,0.14709245884749322,-0.06777956652915862,0.060348256808730884,-0.2827433388230798,-1.5707963267948966
3.813289165496826,0.00039263192155967395,-0.00021808687075553513,2.0070314978906363,0.009643282390851863,-0.004954558630139161,-0.005438448451241355,0.15680530803393802,-0.07050393541897432,0.06564505315292721,-0.29679192064691495,-0.7024290911917586
3.833226442337036,0.00044226193073275167,-0.0002572641003167249,2.006920523155902,0.009869325175637437,-0.0052451053122553135,-0.006480646811983095,0.17960222535588358,-0.06588713032872787,0.07059755312912465,-0.29597381476697304,0.040905293997095526
3.853170156478882,0.0007607702375447298,-0.00043849904536427355,2.0066529189250932,0.013810352366329824,-0.007076324971947607,-0.007502407387316236,0.20797167076208606,-0.06572854567972816,0.07535716402245736,-0.2917158620669569,0.21289763500080827
3.8732457160949707,0.0010804199117691157,-0.000593153389744689,2.006518248700993,0.01824631736975599,-0.00838809577797165,-0.005949469463228018,0.23548252337491535,-0.0654244771514395,0.0799008784133428,-0.27323000588771773,0.9242928089619573
3.893203020095825,0.0013849487709561412,-0.0007728993798550825,2.0060344925412026,0.020424357642199253,-0.009706214700533268,-0.014452762306950945,0.26627450423778426,-0.0693342064832317,0.08461916094884987,-0.27461502999346754,-0.06925120528749051
3.91327166557312,0.0018486862063616719,-0.0009811347789672514,2.005762664727803,0.026048204549327186,-0.011129267466536396,-0.012715020218065448,0.29592033408576834,-0.07291696049137807,0.08911885275341262,-0.256896544721116,0.8859242636175768
3.933183431625366,0.002026349019494154,-0.0010944609224131877,2.0052557628258088,0.026294513314408238,-0.011866255453526896,-0.022430955424251928,0.30464425699412145,-0.07967161483802317,0.09386583905036172,-0.2619305568542978,-0.2517006066590888
3.9531655311584473,0.002843223978344236,-0.0014798570115826227,2.004445989907312,0.03248847198365522,-0.01415659781698261,-0.024316815377829728,0.3171308893147197,-0.09051608818009153,0.09848578248006885,-0.2561693674332379,0.2880594710529927
3.973273754119873,0.0035572315245002133,-0.0017817853881674668,2.003979647656577,0.03895253946483141,-0.01607040758463026,-0.02230274827090556,0.32920802177036507,-0.10076654254290687,0.10288425815704715,-0.25223382551618023,0.19677709585288472
3.9932241439819336,0.0042915427545468995,-0.0021049146206430663,2.003426862758137,0.04303708066925394,-0.017658119901815046,-0.023458901698149338,0.3477776039429287,-0.10972193045317498,0.10697949034150514,-0.2532378817299885,-0.05020281069041399
4.013242244720459,0.005223040744708995,-0.002480593106994477,2.0029793431913983,0.05017214687912337,-0.0199378948843989,-0.02128009934454976,0.36560631966593027,-0.11817188739130542,0.11086622572039517,-0.2491337994739049,0.20520411280418038
4.033264398574829,0.00569516163324219,-0.002665028255710914,2.0026559732410467,0.05271721282039531,-0.02068444547875588,-0.023523280846474516,0.392758526613367,-0.13796640725573073,0.11454960806736299,-0.2469847907575642,0.10745043581703584
4.053174018859863,0.007394475642359371,-0.0033111207943078464,2.001887362863623,0.06301865525286904,-0.023814273271425053,-0.02319908701869622,0.41818618026665333,-0.14482259221111124,0.11802035516675513,-0.24114317413762976,0.29208083099672155
4.073329448699951,0.008740126636104609,-0.003816804327461626,2.0014472068839972,0.07162757447282309,-0.02677536831857837,-0.02080558680687114,0.44252551808253116,-0.15120918160418104,0.12129763977436142,-0.24219126516358358,-0.05240455129769117
4.093264579772949,0.010168491149930915,-0.0043295971100425264,2.0010297718671572,0.07815899651201352,-0.02854689335534808,-0.018561140345958096,0.445952183865708,-0.15614123474235997,0.12412079413934514,-0.23753375607696503,0.2328754543309275
4.114829063415527,0.011821079156206598,-0.004932070826113429,2.0006835526326134,0.08711050740605991,-0.031715507790394934,-0.016051957924151088,0.4491632218773584,-0.16065019701807914,0.12676838969225637,-0.23896433155728936,-0.07152877401621627
4.1332688331604,0.012663968160022167,-0.005233536620797044,2.000618089377513,0.0902512214061623,-0.032696040830212506,-0.012103666246962321,0.451828687860852,-0.1634662043154709,0.12889441286483863,-0.23789284747506256,0.05357420411133962
4.153168439865112,0.015558646301659046,-0.006273305538967736,2.0004447123706126,0.10343324816154595,-0.037230801839494364,-0.004409978921622498,0.4534966263896084,-0.16652268785248928,0.13041872556370987,-0.23720395977052844,0.03444438522670623
4.173168420791626,0.01771811601086209,-0.007051410519901704,2.0003826912885017,0.11251889838247527,-0.04058859652892417,-0.001787505300655893,0.4550493438333746,-0.16919286382462453,0.1318059553972579,-0.23784127755310758,-0.03186588912895694
4.193209409713745,0.020090356116678476,-0.007890277591730471,2.0005945480546456,0.12248704275497764,-0.04377277735651754,0.006383167629195095,0.45450089523512477,-0.1626574611242537,0.132489852213831,-0.23539092162384678,0.12251779646303973
4.2132298946380615,0.022630957853003255,-0.008797826859924442,2.000748749391521,0.13157112096345952,-0.04696022699803917,0.009038874551653035,0.45389794094557245,-0.15608074761686994,0.13306242860703166,-0.2356971265404666,-0.01531024583099061
4.233297348022461,0.024011196884922707,-0.009281628345833421,2.0009873304973884,0.13730740072529427,-0.04867022925298197,0.01440088616259901,0.4515999175861819,-0.14873800738562004,0.1331692533133704,-0.23381983429385844,0.09386461233040766
4.253131151199341,0.028383842013232716,-0.010834850207408632,2.001614433665326,0.15228863815941168,-0.053853957083345796,0.022245157192245766,0.45017301763425893,-0.14232041727524697,0.1327699839384667,-0.23335320007616867,0.02333171088448882
4.273346185684204,0.031519552680048836,-0.011939964177728536,2.0020858603235894,0.1612775677376477,-0.05663595422761966,0.024895920718224804,0.4487147977840028,-0.13587472293148894,0.13229363112189008,-0.23175281347551868,0.08001933003249917
4.293215036392212,0.034917415000273594,-0.01315614645041513,2.002806843568388,0.17230929302484532,-0.06076578932788936,0.03242269181023533,0.4461119303946602,-0.13223954651257588,0.1312905842435384,-0.23263923996959557,-0.04432132470384431
4.313229560852051,0.03845265050746394,-0.014397662031580034,2.0034814857785816,0.18120563396675823,-0.06337326795605057,0.03503799468620377,0.4435248178073014,-0.128489334987716,0.13023024553184537,-0.23033383002642394,0.11527049715858162
4.333271265029907,0.04034611554491791,-0.01507963257907853,2.0039581538008178,0.1873253133815974,-0.06579683653000251,0.03973048031721905,0.4416256573535322,-0.12261355933384176,0.1288684308395234,-0.23165633319957202,-0.06612515865740409
4.353130340576172,0.04622913844152811,-0.017151195855583674,2.00531796420624,0.20240193564398545,-0.07065720561979964,0.04669847614542874,0.4393989682189233,-0.11934288235060968,0.1271329694331291,-0.22938049111674985,0.1137921041411083
4.3732335567474365,0.05036490873159163,-0.01858798420875458,2.0062772430063047,0.211167686571669,-0.07301030919072451,0.04922351140629834,0.43717693848284866,-0.1159467707332132,0.12536524631968546,-0.22779557178395837,0.07924596663957395
4.393232345581055,0.054772868295029614,-0.02012827682825728,2.007433206933357,0.22230747151175195,-0.07669416398774741,0.055328172162784794,0.4342579866912087,-0.1108836532075035,0.12326169989354392,-0.22738874019004562,0.020341579695637435
4.4132606983184814,0.05930567566624063,-0.021683996664616075,2.0085642815295732,0.23096359862164925,-0.07886076776639321,0.057772212561863635,0.4313578960214753,-0.10576811393254026,0.12113924150085328,-0.22509491190133568,0.11469141443549713
4.433228254318237,0.06169682239297623,-0.022512411650387015,2.009231425004983,0.2369494816063741,-0.08087370290768552,0.06132398857311191,0.4278173994029017,-0.10271543722211395,0.11887334037638717,-0.225482236226485,-0.01936621625746593
4.453186750411987,0.06905540839920225,-0.025020896978611387,2.0111994153321646,0.251384741445758,-0.08495607698722193,0.06698534602516688,0.4235537736789327,-0.10023182502016584,0.1163642804300314,-0.2228204769121671,0.13308796571589454
4.473175764083862,0.07416753256307862,-0.026739891640596085,2.0125622276812645,0.25981365096771825,-0.0869346005232703,0.06928751510533153,0.4193465807908414,-0.09759526400478342,0.11385215409135649,-0.221319669222098,0.07504038450345529
4.4931981563568115,0.07952802975898908,-0.028543662299753955,2.0140675812874944,0.27014380270341554,-0.08999168187228411,0.07392704434530917,0.41265070001572224,-0.09621281344433197,0.11116182325861035,-0.22051585464985113,0.04019072861234374
4.513286590576172,0.0850129967923168,-0.030362636662995837,2.0155681754275903,0.278331062629322,-0.09190050285585377,0.07612341831944412,0.4060992825579444,-0.09463738769120121,0.1084764256603966,-0.2186763703387542,0.09197421555484642
4.533205986022949,0.08958506982775327,-0.031873895077637236,2.0168690053426026,0.28653085699768116,-0.09414338789724515,0.07962482656146865,0.3993227910095207,-0.09405766419597332,0.10570267169941175,-0.21796336917390846,0.03565005824228695
4.554196119308472,0.09539510707927962,-0.033775524236675965,2.0184824579860243,0.2944507673318073,-0.09601683171324744,0.08171122505203793,0.39269252667987803,-0.09324883686916095,0.1029388578634253,-0.2163733933818981,0.07949878960051837
4.573399782180786,0.09811062028626735,-0.03465743731482837,2.019264718628978,0.2993543872091912,-0.09723834402959808,0.08383642659493303,0.3860295688832957,-0.09208086133786883,0.1001849448830505,-0.2159210490409733,0.02261721704623909
4.5932297706604,0.10763231461330171,-0.03772608827680783,2.021954397929746,0.3128437202041924,-0.10032781145899755,0.08810428348899375,0.3801777266084985,-0.08743401482045197,0.09730222092089148,-0.21302606117481782,0.1447493933077748
4.613984823226929,0.11396484129207217,-0.03974981774997658,2.0237357527120867,0.32038989782961685,-0.1020293959325845,0.09002164241873538,0.3744627551138891,-0.08271206760182573,0.09443652622973242,-0.21224131447424233,0.03923733502877447
4.633271932601929,0.11723358411528965,-0.0407822255746742,2.024674538560416,0.32539554398721937,-0.10304445538406601,0.09189668265484913,0.36959806161754355,-0.07769173595699704,0.09161137951345806,-0.211186005078567,0.052765469783766505
4.653143644332886,0.12720552202848462,-0.043922593872668614,2.0275034947962673,0.3376792096914298,-0.10574529317806598,0.09549119727232763,0.36488185252166705,-0.0733022250817483,0.08870409858191255,-0.2088546169569172,0.11656940608248956
4.6732094287872314,0.134031771898163,-0.04605186386917855,2.0294308668180348,0.3449303044215493,-0.10716683036999491,0.0972363857152493,0.3602399920966953,-0.06883942302427529,0.08581834395833496,-0.20771269287745397,0.05709620397316151
4.693168640136719,0.14105599045507652,-0.04823106607628504,2.0314310170342544,0.3534023756806173,-0.10907531597561966,0.09987037661089918,0.35437828715738584,-0.06607797893588019,0.08293352408997134,-0.2064634940909258,0.06245993932640914
4.713213205337524,0.14819452952948994,-0.05042559718873559,2.0334448201146755,0.36043243784096973,-0.1103681444889874,0.10150039305696204,0.3486500938341362,-0.06318278577921174,0.0800720134336201,-0.20502073721839098,0.07213784362674058
4.733278751373291,0.1518457073165847,-0.05154550375084301,2.034484703906489,0.364698691373894,-0.11137931279258774,0.10286511196149073,0.3427882064042708,-0.06537465640244333,0.07729555932356336,-0.2047763367445774,0.012220023690678872
4.753126621246338,0.16297051400755336,-0.054923412842684496,2.037624863138815,0.37576688379628126,-0.11350348670865319,0.10570798574532451,0.3365282255532021,-0.0630960570988532,0.07448239421544735,-0.20228111410360672,0.12476113204853423
4.773285865783691,0.17055274695078235,-0.0572059429645544,2.039753733022246,0.38243600706915054,-0.11474147013074755,0.10716970767981239,0.33040717134697906,-0.06067949327131613,0.07169391994848956,-0.20142435019694505,0.04283819533308364
4.793215274810791,0.17830480769385404,-0.05951295907554948,2.041934730008932,0.3899264659352486,-0.11592316131526526,0.10915306761806208,0.32566474297563525,-0.05768458288372199,0.06895284471825247,-0.19963109099388054,0.08966296015322506
4.813229084014893,0.1861681580390684,-0.061842754158313515,2.044131400431213,0.3963930429748182,-0.11704600492126999,0.11050492034041964,0.32100705342817,-0.0545820053556866,0.06623656477671451,-0.1985871562693231,0.05219673622787191
4.833281755447388,0.19016835536479534,-0.06301542071363551,2.0452523260328066,0.40012536635135415,-0.11755953795425968,0.11149772881815526,0.3161678212330046,-0.0524581145139737,0.06363027609741224,-0.19778374974246526,0.04017032634289208
4.853174209594727,0.20233217050096639,-0.06656853106227731,2.048638071504353,0.4100651406871224,-0.1192069941575326,0.11372773191721539,0.3112267374185039,-0.05200259482985053,0.061017514778316524,-0.1955749551361583,0.11043973031534815
4.873278856277466,0.2105953936199351,-0.06896303075084778,2.0509246566690034,0.4162409916509866,-0.12024076811088052,0.11492215586274679,0.3063728637394369,-0.05134067277221455,0.058428910096742954,-0.1947285404466581,0.042320734475009836
4.893146753311157,0.2189986212870659,-0.07137857635259363,2.053248921515743,0.42273794764728245,-0.1212692036811317,0.11641765437511599,0.3009237198472922,-0.05180489338813195,0.05591556474556907,-0.19338373278702603,0.06724038298160373
4.913254022598267,0.22751320621872553,-0.07381434026907743,2.0555882913198955,0.4287026822945608,-0.12230793149309993,0.11751102558408215,0.295564747400095,-0.052028012858286635,0.05342542878674446,-0.19247719592181722,0.04532684326044034
4.933258295059204,0.23182318132337051,-0.07503513784970528,2.056773681113508,0.431852274750387,-0.12264735062762838,0.11823789173573605,0.29184309824372046,-0.048151425954432246,0.051056680063605774,-0.191733313195654,0.03719413630816071
4.953142881393433,0.24491891198573681,-0.07872957578610475,2.0603515802394643,0.4408149916379655,-0.12387153075485184,0.11996867839757366,0.28755886007240555,-0.043924003241951934,0.04870093397569864,-0.18954667431517835,0.10933194402378277
4.973260402679443,0.25379244129700756,-0.08121550705338777,2.0627605380104965,0.44652388009800775,-0.12470735047777935,0.12091931731571412,0.28334103954205303,-0.03965037609727496,0.046366518043128885,-0.18873588797050855,0.040539317233490024
4.993227005004883,0.26278543333902604,-0.0837127216735035,2.0651967735408756,0.45229977491020307,-0.12535135809301742,0.12203905456957302,0.2801908680081649,-0.033428656154176284,0.044123079975371425,-0.18727333835213233,0.07312748091881094
5.013221502304077,0.27188725820105425,-0.08622602157649174,2.0676462306725276,0.4578722909704335,-0.1259580126768149,0.12289924628916216,0.2770647763603689,-0.027242801862474752,0.04189938924587862,-0.18602576662760395,0.06237858622641923
5.0332043170928955,0.2764798814993323,-0.0874914775343198,2.068881902666344,0.4606072344182046,-0.12633925647119496,0.123427929619871,0.2739181192647757,-0.023849111945288298,0.03980012167117288,-0.18572704930270678,0.014935866244858431
5.053160667419434,0.29041978616637787,-0.09130447348543305,2.0726077250402506,0.468749934217829,-0.12735759412736225,0.124746935993049,0.27121522118747465,-0.018929242167265135,0.037726088356118154,-0.1836534584213907,0.10367954406580449
5.073187589645386,0.2998488476668381,-0.09385508340354208,2.075110071565187,0.4741472041104013,-0.12768701029178317,0.12548086018469118,0.26851171560632986,-0.014013034638100698,0.0356691950993614,-0.18233179889725948,0.06608297620656067
5.093207120895386,0.30937700507637644,-0.09642769020332208,2.077632114203574,0.4792811634614168,-0.1283268310824726,0.1263083499399626,0.2665981829403642,-0.009035156363485636,0.03371080268479827,-0.18139217443954614,0.04698122288566697
5.113259792327881,0.3190158188883591,-0.09899570279185525,2.080164893562999,0.4845937380533396,-0.12845788798192728,0.12696310871610794,0.26465429317463407,-0.0040732266889434605,0.031767618520681676,-0.17959959561047567,0.0896289414535234
5.133286476135254,0.3238669915490922,-0.10029037961151425,2.0814389393937627,0.4869909112275598,-0.12873102515324825,0.12734346506843683,0.2629166760056135,0.0013130696415680984,0.029946497150941113,-0.17944646185320368,0.007656687863599743
5.153172731399536,0.3385860436044752,-0.10416469269910648,2.085276142430721,0.494594919274712,-0.12901982611322402,0.12832271611066795,0.26022794318422277,0.006350377129486321,0.02815779434207493,-0.1767138688427088,0.1366296505247444
5.17322039604187,0.34852980861948474,-0.10674348463325152,2.0878481096752775,0.49977263931428945,-0.12884266358543509,0.12886808675156688,0.25754507734643994,0.011361487488603552,0.026381318504256634,-0.17510161652801282,0.08061261573479861
5.193211078643799,0.3585610291497225,-0.10933607902799944,2.090434048586518,0.5045274951974538,-0.12899575104130315,0.12946292864070758,0.25693077130912545,0.02020834971980327,0.024705650255588938,-0.1738376723388102,0.06319720946013074
5.213265419006348,0.36870292043969577,-0.11191137123567298,2.0930281370837225,0.5096593324954412,-0.12850455597229907,0.12994036929172162,0.25624040455066216,0.02888250176878811,0.02304011632400428,-0.17151900587183766,0.11593332334862705
5.233259916305542,0.3738014901135348,-0.11320966557932594,2.0943303978087293,0.5118950690304237,-0.12858042128755914,0.13020433207210014,0.25477679870283987,0.03578306617887578,0.02149125794256173,-0.1713531802953483,0.008291278824468229
5.253173589706421,0.3892610836862315,-0.11707422601120128,2.0982485194809395,0.5191883205782771,-0.12811375271030873,0.13090123278203306,0.2538088616120028,0.04251435149665775,0.019978646112559784,-0.16795245124493308,0.17003645252076094
5.2731773853302,0.39969554299705273,-0.11962755517186,2.100870439373953,0.5242540952449382,-0.12719710725085404,0.13128573782419606,0.2527543124962085,0.04913119829610109,0.018473040536295015,-0.16574025991820784,0.11060956633626162
5.2932610511779785,0.410211152000005,-0.12219321147222988,2.103501878459719,0.5287822078353639,-0.1269759512786166,0.1316934046748144,0.24971593111405613,0.05184696298498166,0.017067167698603624,-0.16436076378670883,0.0689748065749507
5.313386678695679,0.4208365362363431,-0.12472217879974795,2.106139066504349,0.5337460517163606,-0.12591164563392057,0.132020729799592,0.24666672009962903,0.054587702469748964,0.015666174356432232,-0.16150849765734865,0.14261330646800907
5.333294868469238,0.4261744696324032,-0.12599476279351882,2.1074611011663795,0.5358494952184355,-0.1258044096014484,0.13219468580011637,0.24321391491148853,0.05512940909454709,0.014374587694457307,-0.16139199758204592,0.005825003765136394
5.3531494140625,0.4423530683444311,-0.12975281035421207,2.1114349653419637,0.5429386068786098,-0.1243727851960081,0.13265853037663866,0.23924058533165213,0.05589798988382668,0.013120711438175902,-0.15705708281861464,0.21674573817156428
5.373187780380249,0.45325942578407263,-0.1322290305026741,2.1140906765865233,0.5476840309337712,-0.12324635383975537,0.13290842036161013,0.23530874114566983,0.05676070746683797,0.01186859990050934,-0.155083204585031,0.09869391167918184
5.393182277679443,0.46259961554483964,-0.1343149144276458,2.116352589097542,0.5515595576272401,-0.12221335189564426,0.13311906166423035,0.23261141274761138,0.05886532498799434,0.010715930556378709,-0.15297956139665514,0.10518215941879294
5.413535118103027,0.47367714862295357,-0.13674726590962868,2.119017036650124,0.5561847237447086,-0.12101463579967915,0.1333218499969341,0.2299034927093741,0.06101346044800668,0.009562855539351323,-0.1504739928627683,0.12527842669434186
5.4332826137542725,0.47925049033098943,-0.13794886796017589,2.120351235695972,0.5584568926660501,-0.12022897168056733,0.13342166889211493,0.22691959822876795,0.06270813330659493,0.008511034803005102,-0.149358668235966,0.05576623134011527
5.453133583068848,0.5017728191808726,-0.14269965459607525,2.1256962531184334,0.5675960044184619,-0.11745912079603277,0.13378296780267704,0.22778403749174922,0.06857829402840371,0.007490972980353667,-0.14320585741369518,0.3076405411135408
5.473265171051025,0.5131703446566864,-0.145034735700583,2.128373342501976,0.5721588226845009,-0.11602980141046038,0.13392255960573102,0.22846794244914695,0.07433478427868853,0.006467693732614976,-0.14151318640554233,0.08463355040764231
5.493195533752441,0.5189006610207495,-0.14618625034942098,2.129712407660821,0.5743667352271309,-0.11510085967636118,0.13396424377041313,0.2295907195419526,0.07982282741917161,0.005542548014384462,-0.14013350384496093,0.06898412802907039
5.513172626495361,0.5304339798117149,-0.14847194277069745,2.132392739097891,0.5789682937878552,-0.113450465999274,0.13406579814918484,0.23053574118449507,0.08519778078060829,0.00461201668239662,-0.13705800284075043,0.15377505021052507
5.53324031829834,0.53622774030785,-0.14960466663730063,2.133733801506594,0.5810603281296113,-0.1126180131500731,0.13410919223858744,0.23124069190262672,0.09146501606813914,0.003774325472056702,-0.13613605101066995,0.04609759150402404
5.55314302444458,0.5596391005752563,-0.1540481991037291,2.1391020767270246,0.589920971190852,-0.10920055572733221,0.13427256197610613,0.23286406664958093,0.09722895918379663,0.0029698638825389765,-0.12956652295875903,0.32847640259554556
5.573247194290161,0.5714841909801494,-0.1562123872524188,2.1417880679010044,0.5945928114716351,-0.10719951789877698,0.1343238468614241,0.23428676924175504,0.1028513568596577,0.002157301075308029,-0.12735317277058833,0.1106675094085352
5.593230962753296,0.5774308223680976,-0.1572834328907178,2.143130872190625,0.5966172986956848,-0.10623876497957548,0.13432276238715998,0.23384169274499775,0.1085456549816253,0.0014339029669309718,-0.12617333177997914,0.05899204953045967
5.613340377807617,0.5894099006979585,-0.1593861270117774,2.145817565489369,0.6012886309642331,-0.10401217020379765,0.13434412278023333,0.2332707303353904,0.11408875881061077,0.000700496496581396,-0.12250192659370818,0.18357025931354798
5.633202075958252,0.5954228394972717,-0.1604285953827548,2.1471610677307447,0.6032480358768603,-0.10308224299014482,0.13434606387913298,0.22760346067443898,0.11570006995949572,5.1528831233071475e-05,-0.12167442289789632,0.04137518479059299
5.653155088424683,0.6197275248178601,-0.16447146238105467,2.1525355035571527,0.6121474273150992,-0.09869493966866053,0.1343543070767692,0.22201960695516323,0.1196939702001607,-0.0005641456953094717,-0.11425455282420538,0.37099350368454687
5.673232793807983,0.632014507947614,-0.16642116053779904,2.15522243519368,0.6165324674388667,-0.09626185708919797,0.13433676243621714,0.21649414146204413,0.12359965996622897,-0.0011923815679273334,-0.11185764642612517,0.1198453199040106
5.693176031112671,0.6381922744102575,-0.16737899098618594,2.1565649017531525,0.6187230569513132,-0.09503545979168875,0.13429450282877545,0.21278606788538115,0.1263609357362577,-0.0017394172208492062,-0.11041703588082141,0.07203052726518777
5.7132768630981445,0.6506090449303458,-0.16925424652486679,2.159250406742759,0.622941593390713,-0.09248106394307828,0.1342541252239247,0.2090655829345464,0.12906998354898336,-0.0023006832275426115,-0.10666691486152802,0.18750605096466977
5.733303070068359,0.6568590676190132,-0.1701743858847303,2.1605923249361787,0.6252899425660463,-0.09121401875675722,0.13421252183332502,0.20513767020482765,0.13142653154964803,-0.0027847318202757912,-0.10540131446980139,0.06328001958633145
5.7531702518463135,0.6820540987105327,-0.17371862301272692,2.165958368361143,0.6339285733077673,-0.08593992742925101,0.13409016181692193,0.20082004217761132,0.1339879225667149,-0.0032357480375079664,-0.09741386760459703,0.3993723432602181
5.773230314254761,0.6947725471429071,-0.17541045582223985,2.168639493545519,0.6379019314209085,-0.08323498894889411,0.13402079778047885,0.19651849943055733,0.13649730384328682,-0.0037033932941101444,-0.09492607718268609,0.12438952109554702
5.793190240859985,0.70117013654836,-0.17623263825922303,2.1699784420334804,0.6400782620698423,-0.08177009727214574,0.1339485854504818,0.1923723118617976,0.1364142233354781,-0.004097502353742803,-0.09326404013150391,0.08310185255910874
5.813172101974487,0.7140098991338055,-0.1778407605793562,2.1726565670617366,0.6438841293128209,-0.07904225734482015,0.13386254344987042,0.1882121819373004,0.13637743174809133,-0.0045096729037765295,-0.08950814005141172,0.18779500400460947
5.833256006240845,0.7204693884556481,-0.17862057026403072,2.1739943145853107,0.6460272375255975,-0.07764001574943023,0.1337961598946557,0.18131950792791315,0.12663644990270398,-0.004852039004875292,-0.0881898237317289,0.06591581598414109
5.853160858154297,0.7399476604937979,-0.18087874820114058,2.1780056702463013,0.6518802624348846,-0.07349075234177563,0.13363794824924918,0.17586822424422482,0.11664641906939718,-0.005166468493591875,-0.0823637424150605,0.29130406583341983
5.873265504837036,0.753020078663925,-0.1823258813048832,2.180677373945848,0.6553435633891523,-0.07125461614265038,0.13353130649362704,0.17047086971472014,0.10702891055169945,-0.005501024661877202,-0.08011476559222386,0.11244884114183229
5.893174409866333,0.7661863514387256,-0.18368436245092498,2.183345735118996,0.6593360230510734,-0.06803224545289897,0.13338941184168235,0.1637623260723458,0.0934067126662,-0.0057657754822382995,-0.07599205760071204,0.20613539957559102
5.9132819175720215,0.7794053825766515,-0.18502720884882579,2.1860123514749636,0.6625450918232805,-0.06629611681295633,0.1332712697492652,0.15716263974713876,0.0802898681929755,-0.006051969635091266,-0.0740827471347818,0.09546552329651181
5.933288812637329,0.7860567096813694,-0.18563932791563822,2.1873439766498164,0.6645808033063346,-0.06423881538693227,0.13318597226069084,0.15155774321035875,0.06857971936578966,-0.0062750284391188274,-0.07165465016158512,0.12140484865983403
5.953179597854614,0.8060845203129161,-0.18747089393081004,2.191336093779794,0.6697562327431342,-0.060265146116821,0.13297761510031597,0.15177443060448012,0.07683843061290054,-0.006473168309468856,-0.06650089263985937,0.25768787608628774
5.9732441902160645,0.8195100073454544,-0.18866028980223934,2.1939943370725983,0.6727927302620528,-0.05864765858707174,0.13284597618638866,0.1518523948326691,0.08487320309473673,-0.006694558518993551,-0.06495311241596768,0.07738901119458408
5.993154287338257,0.8330158503735016,-0.18974892855071468,2.196648770368779,0.6762810937021198,-0.055298550932444755,0.13268282615330806,0.15250816613172347,0.09684396170947097,-0.006852025869814415,-0.060698904743250015,0.21271038363588346
6.013525009155273,0.8465720109224069,-0.19083475137943243,2.1993010447662233,0.6793367030160469,-0.05324507094435143,0.13254400741737815,0.1530307511484736,0.10844233215238612,-0.0070338698659587915,-0.058521276847135706,0.10888139480571546
6.033266544342041,0.8533736585413203,-0.19135515627650182,2.2006257686991497,0.6808637653026508,-0.05191200601500295,0.13246255542734664,0.15260135069343778,0.12178998341427133,-0.0071595999287489285,-0.05704255064512598,0.0739363101004864
6.0531580448150635,0.8807197813812603,-0.19337652699604901,2.2059186433818674,0.6866844601439094,-0.0480516083589409,0.13217822124421505,0.15188580681667674,0.131905253902723,-0.007260635129336787,-0.05188170815198978,0.25804212465680987
6.073216915130615,0.8944837944147128,-0.1943105201967884,2.2085607476406173,0.6897140838256164,-0.04531508807351659,0.1320317811854567,0.15105802870609142,0.14169241067881122,-0.007387660312622681,-0.04897775467282006,0.14519767395848593
6.093166828155518,0.9013790940505996,-0.19478690227234827,2.2098806342011694,0.6909445745973631,-0.04464369642598227,0.13195541920883624,0.14969567789926735,0.15562804328656513,-0.007462594237773265,-0.048489748493716345,0.024400308955185857
6.113297462463379,0.9152278314064733,-0.19564774482985253,2.212518243730383,0.6939244571517871,-0.04139565666917696,0.13180519480227487,0.14828454618377077,0.16909893110156476,-0.0075642587469667314,-0.04431665646199434,0.20865460158610016
6.133274555206299,0.9221664051774789,-0.1960922849738307,2.21383600266476,0.6951707781517831,-0.040717792481767295,0.13173163905585822,0.14747253240151362,0.18101119866536156,-0.007615710779407583,-0.04394920951341019,0.01837234742920746
6.153132915496826,0.9500807952956838,-0.19765289343974962,2.219099429120409,0.7007990025018729,-0.03528013318122091,0.13143363026036683,0.14686321844128875,0.19202628421803078,-0.00764546619023302,-0.036855205324469065,0.3547002094470564
6.173190116882324,0.9641261038668593,-0.1983193760180251,2.2217265692403467,0.7037295907666741,-0.0313327062175075,0.13128018890414977,0.1461840867379764,0.20265189130983424,-0.007703306171868314,-0.032706702949473865,0.20742511874976
6.193191766738892,0.9711617851879327,-0.1986660410851629,2.223038775072619,0.7049151357166143,-0.030451401880469547,0.131195817348925,0.14402095921910943,0.2133174924343329,-0.007713322430458566,-0.03209073040462007,0.03079862724268967
6.21361231803894,0.9852887469713824,-0.1992317139778323,2.225661146649133,0.7077737716238802,-0.02608162611310222,0.1310412112806834,0.14183967116167312,0.22359595284280698,-0.0077520200442739275,-0.026575921699647065,0.27574043524865033
6.233223915100098,0.9923647943651315,-0.19953094970844643,2.2269708579197647,0.7089217892922824,-0.02515596352014344,0.13095615923358947,0.1393624942436166,0.2348150969559381,-0.007744205612694525,-0.02604121900914569,0.026735134525068815
6.253136873245239,1.0208249936712144,-0.20042827683692405,2.232203033601537,0.7142691617901525,-0.017601154828643398,0.13065069887482436,0.1361137049587396,0.24543402431400685,-0.007717307594908156,-0.016490806683060466,0.4775206163042611
6.273184776306152,1.035137382063127,-0.20073052613454556,2.2348145044139245,0.7169587819950407,-0.012589771714293947,0.13049637249168972,0.1328451006649555,0.25563507725099893,-0.007720260132871003,-0.011109975123670512,0.2690415779694977
6.293174743652344,1.0423093322743215,-0.2008846342003984,2.23611854898013,0.7180941339572188,-0.011456483188722165,0.13040247865904783,0.1237534864310968,0.22214627942591797,-0.0076787715317929075,-0.01018931025504699,0.046033243431176096
6.3133323192596436,1.0566953690660499,-0.20107151291194234,2.2387250640441043,0.7204798739717129,-0.0073394041571866854,0.13024906490277416,0.11485208718671977,0.18974121593433904,-0.007667612965103241,-0.005054314632961354,0.2567497811042818
6.333246469497681,1.0639101561018167,-0.20115005069886388,2.2400264322261787,0.7216904841363706,-0.006001254691021238,0.13015246538396327,0.10611842725102393,0.15956243429054476,-0.007612915076782432,-0.003775777293733462,0.0639268669613946
6.353145122528076,1.0856279812949996,-0.2011872662922268,2.243926471420504,0.7254139988194991,0.0010201615473275647,0.12989150007749972,0.10327843741426307,0.1736200875466772,-0.007544415941568466,0.0050223394316808445,0.43990583627071533
6.373244762420654,1.100156726848032,-0.20113122651694496,2.2465227955388407,0.7274510384025944,0.004629034229533743,0.12974103590558622,0.10042302858704455,0.18718566085148047,-0.007507161716485513,0.009029308341540698,0.2003484454929927
6.393270015716553,1.1147528638118176,-0.20089480472931545,2.24911283594129,0.7301053564585709,0.010967204221094467,0.1295104145822217,0.09923369178218798,0.19808057243646648,-0.007419857317896464,0.016870731120031124,0.3920711389245213
6.413578748703003,1.1293747356282742,-0.2006351382259756,2.2517015644825533,0.7320776771917897,0.015034429882051765,0.12936262420937622,0.0979893144565696,0.2085757847040163,-0.007364448196825049,0.021707952235592298,0.24186105577805872
6.433318376541138,1.136710072343022,-0.20045542793024848,2.2529935757193362,0.733266454929764,0.01737056101470469,0.12925503266783214,0.09201234166031487,0.18127752597452207,-0.007281244643082473,0.02453040889219249,0.1411228328300096
6.453158140182495,1.158755944190267,-0.19985001706100547,2.2568674594361453,0.7362313892401682,0.02266006529197518,0.1290240899116052,0.09457429772041265,0.14717594848241,-0.007311130873598813,0.03124831165369546,0.3358951380751485
6.473230361938477,1.1734996450839932,-0.1993695960663497,2.259446475628205,0.7381464052525674,0.025272218546165348,0.1288773374089344,0.09688589781538987,0.11423103667715671,-0.007368687820918213,0.03446037547173919,0.16060319090218655
6.49320912361145,1.1882819737139796,-0.19876621793927546,2.262021880235427,0.7400942394237257,0.029816042017217798,0.12870955792169606,0.1022279100481184,0.1288212820177539,-0.00753826116582,0.040329497100324296,0.2934560814292553
6.513181686401367,1.2031046461173716,-0.19814318488267788,2.2645945513094805,0.7421898693347946,0.03253425230414085,0.12855690930004107,0.10728850045255665,0.14291797849092175,-0.007730308650614701,0.0438079018038775,0.1739202351776603
6.533261775970459,1.2105212785819448,-0.1977261407681881,2.265878681183729,0.7429908674435528,0.03634429137076615,0.12844719053411538,0.11310127038640636,0.14425676320317415,-0.007987259248053442,0.048876096466776264,0.2534097331449381
6.553164482116699,1.2328384841406448,-0.1965264522019642,2.2697280900669896,0.7457233581324112,0.041838337959129474,0.1281944873363494,0.11576261502460036,0.13890075837451352,-0.008337417472287147,0.05591591881704083,0.3519911175132284
6.573245048522949,1.247776269766328,-0.19566225365133286,2.272290288213358,0.7480633116345703,0.04456424332063581,0.1280241087447469,0.11819483149159916,0.1337185915118984,-0.008702978069709414,0.05912384837595308,0.1603964779456124
6.593165397644043,1.2627217058978615,-0.19471662297521564,2.274849601968924,0.7494845276981088,0.04782523961435555,0.12786281786699216,0.12333064540816999,0.12826905710483738,-0.009157948341681243,0.06311199159875613,0.19940716114015267
6.613317251205444,1.2777363893173994,-0.19373481775225074,2.2774049958498264,0.751999892243353,0.050337777939878675,0.12767501677273882,0.12815411424681003,0.123017596114023,-0.009623978273218056,0.06595746567346561,0.14227370373547377
6.63327956199646,1.2852370799979163,-0.19321508039430899,2.278682282518996,0.7526021107773163,0.051817267857797965,0.12760380534716712,0.13462947646857942,0.1175740294260059,-0.010136615830923835,0.06764247994121497,0.08425071338746815
6.653096914291382,1.3154021607538546,-0.19101652294108543,2.28378036584497,0.7568628221623648,0.05728362222476655,0.12724169151046746,0.13917978916015425,0.1113405088525355,-0.01076198054066584,0.07401818096630741,0.318785051254622
6.673230171203613,1.3305675430421264,-0.189848986983525,2.286323005396155,0.7596896782812266,0.05944992593494859,0.12702016636530558,0.1434613355309228,0.10532618855616348,-0.01139114969721452,0.07604803746272237,0.10149282482074806
6.69317102432251,1.3381435460714548,-0.18922507529417537,2.28759328220834,0.7603398241775244,0.061160839378921854,0.12691937206084966,0.14488901959656378,0.10173334488561545,-0.01205217003776552,0.07793360747824973,0.09427850077636801
6.713432788848877,1.3533794070786402,-0.18798174446219174,2.29012921506497,0.7632504727326468,0.06316072683687966,0.1266717047852701,0.14614792003024046,0.09827822397018952,-0.012714811952344963,0.07992370383499026,0.09950481783702614
6.733277797698975,1.3609919192218063,-0.18732064554330197,2.291396716166459,0.7639917996598005,0.06479146668865439,0.126579349484659,0.1516888515874507,0.09439301421883677,-0.013406464830320264,0.08167775005293576,0.0877023108972752
6.753149032592773,1.3916373596848788,-0.18462982559548724,2.296452155066409,0.7692425463227801,0.06911218248090498,0.12610973542726459,0.15824254321407727,0.09479426208135472,-0.014193366217825678,0.08612533824242918,0.22237940947467116
6.773213148117065,1.4070542783045743,-0.183228596173065,2.298971458863021,0.7724699815757974,0.0710121085977842,0.12581803604031036,0.16444239998750998,0.09519891211693492,-0.014975822473916116,0.08764778670111761,0.07612242293442151
6.793219327926636,1.4147677310824538,-0.18251211475543305,2.300230232608418,0.773642677731626,0.07201710329968013,0.1256989597411025,0.17457233581043657,0.09844534036566323,-0.015775274292336043,0.08853773522531272,0.044497426209755275
6.81324028968811,1.4302761493776375,-0.18105187206108883,2.3027410037517733,0.7772312508848478,0.07401766352346799,0.12537550980682818,0.18420217407614764,0.10159457544377203,-0.01656870914236098,0.09035255834281308,0.09074115587501819
6.833273649215698,1.4380299191063766,-0.1803146881574251,2.303995820568505,0.7783653427425108,0.07477873200274304,0.12525688281058028,0.19509669758420142,0.10037765256156293,-0.01737711010830303,0.09093614663452643,0.029179414585667196
6.853111028671265,1.4692599900190397,-0.17726488266179624,2.308995962337438,0.7847326893431364,0.07826566662756472,0.12464644232744596,0.20316540966095903,0.10165628578348478,-0.01826401810289443,0.0940926667813029,0.1578260073388238
6.8732240200042725,1.484995793250501,-0.17567915408257181,2.3114851798032148,0.788873095391695,0.0803113700323715,0.12427238456830066,0.21080398155615818,0.1029099120718262,-0.019139922401563196,0.09560995573359854,0.07586444761478184
6.893195390701294,1.492861797667557,-0.1748851107823792,2.3127286695456766,0.7900760086711688,0.0809645137177052,0.12412166655222333,0.2144529622214966,0.10678964229075402,-0.02002065223677043,0.09601268401024798,0.020136413832472222
6.913496255874634,1.5087064367699818,-0.1732442104280453,2.315207040633528,0.7943990715718836,0.08313802174643033,0.12371254663829105,0.21780403389593964,0.11053967817777875,-0.020889330632550118,0.09784284494459206,0.09150804671720358
6.933286905288696,1.5166302331689578,-0.17242533866596885,2.31644524009673,0.7957181398228766,0.08376415645584431,0.12355601505192282,0.21806978330567808,0.11583651471093022,-0.021761484966032474,0.09817912461997835,0.016813983769314866
6.953202724456787,1.5486052218554487,-0.16902281785320353,2.321373743428872,0.803789552816764,0.08743100562878547,0.12276609378071818,0.21738800357558402,0.12338830037955813,-0.022695204713497074,0.10112487130130798,0.14728733406648153
6.97327446937561,1.564724439548835,-0.16724902969572883,2.323824464816529,0.8081295773468686,0.08997211305065268,0.1223029859571191,0.2165962823853284,0.13067923337000797,-0.023612914043977577,0.10300894363337942,0.09420361660357202
6.9932355880737305,1.572812781846554,-0.16637360436562193,2.3250476811311547,0.8101745653782157,0.09037053929832585,0.12209679783825822,0.21260701063985743,0.12792303492766635,-0.024524836412131407,0.10292481854365976,-0.0042062544859833295
7.013254404067993,1.589058525977856,-0.16454078930477212,2.327484652155714,0.8143863757977955,0.09290200678878766,0.12159732017050676,0.20856545130614587,0.1252350247514023,-0.025420171725685108,0.10509513549983529,0.10851584780877666
7.03328275680542,1.597219654067211,-0.16363899785713823,2.328700999399011,0.8166553971030429,0.09320956584536187,0.12138151150138562,0.205009253815626,0.12396705270372843,-0.026309037086684556,0.10483458936223666,-0.013027306879931366
7.053317070007324,1.6300778919444743,-0.15983969563028075,2.3335379155327365,0.8255340202789221,0.09748058226293604,0.12038469475209722,0.2005440243297433,0.12128123285207017,-0.027242611046400553,0.10814251252895035,0.16539615833568444
7.073246002197266,1.6466283807445614,-0.1578660033598937,2.335940099645787,0.829499794557737,0.09987992061567666,0.1198306698180547,0.1960245021968948,0.11866397372879862,-0.028156633443241208,0.10968580342547574,0.07716454482626922
7.093157768249512,1.6549549633116063,-0.15686920175356941,2.337137570570321,0.8320443141706738,0.10084625975071443,0.11955646680690296,0.1907834459513301,0.11783624977380903,-0.02905620477818959,0.11010726220121514,0.02107293878697014
7.113619565963745,1.6716336557097053,-0.1548287641875895,2.3395228296812935,0.8358073780361063,0.1031947579573294,0.11896651147592782,0.18551918786758018,0.11701458336703734,-0.029936051195475034,0.11192638032126778,0.09095590600263215
7.1332128047943115,1.6800298339712396,-0.15379272936342567,2.3407118758013636,0.8384452026352135,0.10430475988324742,0.1186838856795449,0.18021787514275822,0.11577115664942171,-0.030801564305252167,0.11242020735420022,0.02469135164662184
7.153153896331787,1.7052993039190125,-0.15061277540460458,2.3442597309759816,0.844806706544681,0.10773185538215917,0.11778604153482655,0.174517120008057,0.11481413068971384,-0.031678212328272906,0.1148621656140354,0.12209791299175876
7.173241853713989,1.722229962088975,-0.14843523804141168,2.346609058775044,0.8482401526740032,0.11001877277351965,0.117143886410698,0.16882980038172873,0.11388167608827955,-0.03253380304871833,0.11629870904989792,0.07182717179312625
7.193260431289673,1.7392813377296987,-0.1462148420260174,2.348946487468411,0.8528705620469622,0.11222031344380848,0.11651215320511209,0.16034370636915138,0.1126576644798468,-0.033388920593062574,0.11756121837142608,0.06312546607640801
7.213221788406372,1.7563702576415654,-0.14394798448022036,2.3512699968280173,0.8559935199356609,0.11446145060068967,0.1158360047846374,0.1519709388857221,0.11146049852694351,-0.03422231459403536,0.1190903081996213,0.0764544914097609
7.23322319984436,1.7649743605186807,-0.14279765112581858,2.35242719673212,0.858497308567597,0.11559174054903716,0.11550168160769461,0.14486018109351054,0.11239986114844785,-0.03503642108105983,0.11956458148250837,0.023713664144353608
7.253159046173096,1.7994950498302242,-0.13808105933990575,2.357020434052145,0.8658474819796776,0.12016822516480402,0.11412003082173962,0.13970486821181727,0.11327905367858727,-0.03586706355528863,0.12271336385431209,0.15743911859018578
7.273233890533447,1.8168395974241895,-0.1356549825632943,2.3592956070346522,0.8685901379424459,0.12244223999188211,0.11339457552876721,0.1345630385460782,0.11411530969089073,-0.03667463682033846,0.12394257410896214,0.06146051273250297
7.293173789978027,1.8255659438800633,-0.1344241184430455,2.3604276374436406,0.8708464545576053,0.1235934506461035,0.11301810042574699,0.13015893624339142,0.11317638207844594,-0.037458771648091735,0.12445250626245352,0.02549660767456885
7.313212871551514,1.8430086106087624,-0.13192967547683052,2.362680456559962,0.8734055022519263,0.12584780083157193,0.11226127318694787,0.12574413515425406,0.11226283214228526,-0.03822018069994219,0.1260406629030979,0.0794078320322189
7.3332531452178955,1.8517795438196094,-0.13066632495242417,2.36380157868267,0.8754713520585364,0.1269368467282856,0.11188427720146527,0.11998301639662173,0.11066234610502862,-0.03895956403599502,0.12643759628706475,0.019846669198342326
7.353168487548828,1.886935296110536,-0.12549826018002277,2.3682469806775313,0.8812250086809057,0.1313838569290496,0.11034711889315411,0.11550271205705101,0.10628170475568104,-0.0397048472577411,0.12943295363797747,0.14976786754563598
7.373248815536499,1.9045825972098924,-0.12284961064776925,2.370445933576191,0.883490105478762,0.13346703287240083,0.10954576498336847,0.1110039991762397,0.1020626421404151,-0.040426647618304175,0.1304156088272972,0.049132759465986275
7.393229961395264,1.9134410756636304,-0.12150523021911322,2.3715394211797043,0.8850620149343166,0.13459032117924527,0.1091363384415809,0.10600022555276488,0.09755840107904945,-0.041123812171312196,0.13095653516411376,0.027046316840828588
7.413290500640869,1.9311631833774685,-0.11879420420390957,2.3737138778600695,0.8871321411925835,0.1364978115351023,0.10830708238847561,0.10101566017876523,0.09321772524811038,-0.04179797765473951,0.13213087195041417,0.058716839315020586
7.433281898498535,1.9400573511417272,-0.11741205773509666,2.3747953086563967,0.88862010813455,0.1377519792142924,0.10789582220468516,0.09856146706020556,0.08841308790538951,-0.042448971789037136,0.13278871062631747,0.032891933795164974
7.453163146972656,1.9757045899997656,-0.11180362165834638,2.379078291275856,0.8930830317646079,0.14192770744633676,0.10621797312717657,0.09443236824382287,0.08308493370938375,-0.04309641359963067,0.1354485064179305,0.13298978958065089
7.473228693008423,1.9935848611301719,-0.10894879570089935,2.3811939894575165,0.8949302711210076,0.14353779541168143,0.10534976443677838,0.09028934068149708,0.07795702534787524,-0.043720597976169236,0.13598582169221807,0.026865763714378765
7.493177652359009,2.0025455085972164,-0.10749407484898597,2.3822454121279333,0.895998223161356,0.14469097935749392,0.10491003926870668,0.08804895841740493,0.07016436998457741,-0.04431998065355292,0.1366401461634128,0.03271622355973669
7.513502597808838,2.020482928993801,-0.10458672725123123,2.384334710093824,0.897736049552365,0.14601877969538196,0.10401783497420328,0.0857189096776926,0.06266409311832055,-0.04489668824819874,0.13726263491904822,0.031124437781770986
7.533295154571533,2.0294694311218118,-0.10310280479266497,2.385373129717197,0.8986839536630523,0.14717247530203095,0.10357760055770232,0.08145943323359851,0.055173774784365796,-0.04545018839285195,0.1379054159414852,0.032139051121848894
7.553133964538574,2.0654853842933965,-0.09712899252475754,2.3894809967612036,0.9019724861781427,0.15037945940974942,0.10178114977248154,0.07673279203114222,0.04834264576990961,-0.04599214967770501,0.13969472550916606,0.08946547838404317
7.573228120803833,2.0835398656835507,-0.09411217680269288,2.391507386323796,0.9034599123304548,0.1512802350764683,0.10085607503080259,0.07201065645434425,0.041779275288479356,-0.04651159030730772,0.1397218157375586,0.001354511419626725
7.593210935592651,2.0925768075535034,-0.09257386904261682,2.3925138244445785,0.9041216463252943,0.15230157682316112,0.10039204708966558,0.06965769044877558,0.034788334722935965,-0.04700704566880757,0.14036931101317007,0.0323747637805738
7.613250970840454,2.1106730108334384,-0.08952133146525976,2.394512232042665,0.905490551393757,0.15292983856812714,0.09944713414775679,0.06721864279412879,0.028085571898078067,-0.04748062084796348,0.1403357776733256,-0.0016766669922230193
7.633304119110107,2.119732357255915,-0.08796424605625089,2.395504815170418,0.906179528452174,0.153912036167218,0.09898195108372398,0.06653150885088557,0.022996945026276236,-0.047931726295150086,0.14098074056343757,0.032248144505597764
7.653135538101196,2.1469460692441604,-0.0833091752521245,2.3984534419310015,0.9081065608386475,0.1553487417018457,0.09756115473999268,0.06519382711808326,0.020343745409524005,-0.048363450423054545,0.14143488146901717,0.022707045278980154
7.673267841339111,2.1651211442807528,-0.08019830144219885,2.4003949646169183,0.9093961005295857,0.15573026818488842,0.09658974551958369,0.06374117954324621,0.01783238152911413,-0.04877395387155088,0.14124421208133242,-0.009533469384237492
7.693215847015381,2.1833104711891376,-0.07705243818146786,2.402317874924303,0.9103354852366596,0.15673031216376224,0.0956329615043394,0.05926229190747459,0.015900759634465127,-0.04916301805518456,0.14172609727233487,0.024094259550122565
7.713544845581055,2.2015287345243655,-0.07391477519664,2.404220676650838,0.9114759034946726,0.1570299045471191,0.09464598334137381,0.05477887339377373,0.014076204297664197,-0.049531364193616874,0.14147002823073462,-0.012803452080012434
7.7333478927612305,2.2106375709042223,-0.07233448408764008,2.4051652401528454,0.9117425393895356,0.15742166624767825,0.09416393001158685,0.05041701207819689,0.014294051404929,-0.049878811791925805,0.14165999030177678,0.009498103552108006
7.753265142440796,2.2288822144419083,-0.06918317555580984,2.4070385208332654,0.9127072844953369,0.15771003768603306,0.09316304681603733,0.04605806276683275,0.01454926569038867,-0.05020617984143592,0.14144235100035862,-0.010881965070907995
7.773306131362915,2.247143316717017,-0.06602284580174429,2.4088929095486242,0.9135468999634425,0.15803903049316254,0.0921853234995091,0.0409581246905861,0.013236379656082573,-0.05051215359726263,0.14137988689602254,-0.0031232052168039814
7.793476104736328,2.265422107713946,-0.06285950115167505,2.410726494167628,0.9143152914756286,0.15829134368464992,0.09117218358433551,0.035885659358124634,0.012009111372973572,-0.05079860225036076,0.14120331754910032,-0.008828467346111424
7.815425157546997,2.283721252041893,-0.0596987045429588,2.412540839952312,0.9151595960572438,0.15833567136881257,0.09018026873312973,0.03246394418964258,0.012028740732101216,-0.051063186757009944,0.1408823493304867,-0.016048410930680213
7.833307981491089,2.3111958031774646,-0.05495112300215128,2.415223883149687,0.9162432413126246,0.1584544520387591,0.088663638224702,0.02849908114941618,0.010741231762814999,-0.05130360114247318,0.1404548567895434,-0.021374627047165973
7.85313081741333,2.33869832320462,-0.05020239857284372,2.417861151080262,0.9171572854220963,0.1584771673352276,0.08713521221490245,0.02791580589619879,0.008343933733040237,-0.05151890252208218,0.13998739036301533,-0.02337332132640313
7.873221158981323,2.357047005819652,-0.04703133931510603,2.4195935381051874,0.9177085418363787,0.1586212294599903,0.08610283347604387,0.027185579668376626,0.006085206731154867,-0.05171594661272985,0.13984061036094442,-0.007339000103545601
7.893220901489258,2.3662230472729813,-0.04545456159137634,2.4204522839063154,0.9178795696268732,0.1583934340599992,0.08559257652831773,0.024643905715581386,0.00475179814417009,-0.05189480767220853,0.13949075704302194,-0.01749266589612386
7.913244247436523,2.384585394346897,-0.04228582622783386,2.422153745433087,0.9183464227362818,0.15847600461112263,0.08455303863408134,0.022029428670031326,0.003522465757222954,-0.0520560656670733,0.13927775278850252,-0.010650212725971109
7.93320631980896,2.393764856338508,-0.04070856557540984,2.4229970531834004,0.918411930807543,0.1582730397641328,0.08404187300566844,0.02141057146711618,0.0014432077102050063,-0.05220026488499618,0.13897769423413298,-0.01500292771847711
7.953155517578125,2.4305112916693443,-0.03438698187474202,2.426317575107464,0.9190899602384845,0.15806016720671912,0.08196741649441623,0.022567875396894747,0.0008434188833887047,-0.05231162682640626,0.1381652630786938,-0.040621557771958194
7.973248243331909,2.4488976710838024,-0.031225646342511865,2.4279464545099665,0.9195511392455826,0.1580716188414982,0.08092020726150444,0.023515345346738752,0.0003132462322920418,-0.05240657856331409,0.13797649040261195,-0.009438633804093044
7.993208646774292,2.4580861729969095,-0.02965342755325563,2.4287532670285756,0.9195499965335293,0.1578273488491663,0.08040191585252095,0.024045723283407636,0.00017720050329108968,-0.05248584466757784,0.137647117529772,-0.01646864364199807
8.013294219970703,2.4764820078708203,-0.0264968513014477,2.4303508036831754,0.9200346229665307,0.15783001596401008,0.07935153802007157,0.024385410409672646,9.907181749554336e-05,-0.05254932424006554,0.13734886853425854,-0.01491244977567252
8.033215522766113,2.4856715548365402,-0.024928098903239097,2.4311419519860116,0.9199311350608257,0.1575394901582823,0.07883294227817744,0.024404331838554928,-0.0018589244104886278,-0.052598091502089384,0.13701756226474782,-0.016565313475536136
8.053170919418335,2.513266756699243,-0.02021209885893749,2.433483533695011,0.9202554650550205,0.15719462654580407,0.07726219683693698,0.02246912331965651,-0.0049778893466933,-0.0526196462489009,0.13628659951093747,-0.03654813769051746
8.07323169708252,2.5316762262425216,-0.01706940151041646,2.435018252998699,0.9206847349476278,0.15706526578934155,0.07620971047240674,0.020442859677122817,-0.007930682779998487,-0.052626567291166514,0.13595953732681254,-0.01635310920624633
8.093142986297607,2.5500763793438077,-0.013938733574761617,2.4365322248283077,0.9206435041089118,0.15669429158873419,0.07516467460844117,0.017235302763686088,-0.008615212696641329,-0.05261120405443047,0.1354061400053661,-0.027669866072321803
8.113256216049194,2.568492480344529,-0.010806612359962591,2.4380249977982684,0.9209557511242502,0.1565158182392471,0.07411271980465373,0.013981875427544713,-0.009218730291666779,-0.052581982067365834,0.13500923907182383,-0.019845046677113842
8.133262872695923,2.577696503442556,-0.009244151301670833,2.4387636455728314,0.9208780324736902,0.1563734293334107,0.073591445609222,0.008246958203081625,-0.00740096354798618,-0.052540607340562435,0.13482643134428507,-0.009140386376937926
8.153185606002808,2.614541547060162,-0.0030022411649654485,2.4416654092912142,0.9212406047012222,0.15589598171702346,0.07149391127641239,0.0007138299718119729,-0.005959161233076522,-0.052461276273446336,0.13378372106092273,-0.05213551416811679
8.173201084136963,2.6329660056097426,0.00011458186859703031,2.4430848011734985,0.9211805327989248,0.15579106840832188,0.0704455828594465,-0.006701415955877965,-0.004535130248438547,-0.052369506938581126,0.13359962541078652,-0.009204782506810893
8.19319200515747,2.642182788349296,0.00166375632616888,2.4437867195744776,0.9211610719679966,0.15552874294455019,0.06992504136542682,-0.02027693374693077,-0.0006685285357420196,-0.05226752765495602,0.1332600927052341,-0.016976635277621277
8.213427543640137,2.6606010674231895,0.004774443480538356,2.445174774291924,0.9206227857053936,0.15555207779796254,0.06888081003474594,-0.03349191010756075,0.00296311535711778,-0.052153633860068487,0.13310668275374038,-0.00767049757468552
8.233254432678223,2.6698260090372687,0.006316424949538234,2.445860972656858,0.9208593164184846,0.15518740728187302,0.06836028622814497,-0.036417098520568916,0.0032697571204442087,-0.05203010149690737,0.1326391989826865,-0.02337418855269391
8.253153800964355,2.7066802197468887,0.012500557525705109,2.4485536318791947,0.9205058805883487,0.154659348805273,0.0662775914405045,-0.0465121894501327,0.0004815885691335483,-0.05186717437337622,0.1316987272795349,-0.04702358515757954
8.273248195648193,2.725080373490902,0.015593655882165925,2.449868821657867,0.9194766143376555,0.15464125566706838,0.0652419643062012,-0.05637606511620841,-0.002287762889340886,-0.05169381314515115,0.13169402471758085,-0.00023512809770309673
8.293254613876343,2.7342977815927725,0.01713034529758519,2.450518688575101,0.9196949568689423,0.1544473314554207,0.06472762895770338,-0.04851639835893269,0.008673293646968885,-0.05151306650055251,0.1313430309043495,-0.017549690661566864
8.313545942306519,2.7526824767230544,0.020221738553783737,2.4518029510906194,0.9187991114499384,0.15472728164220265,0.06369925833781362,-0.04114968819335478,0.01925960437253343,-0.05132234593959861,0.13144575655529334,0.005136282547191229
8.333266735076904,2.7618889862537657,0.021760700879651554,2.4524373343184473,0.9189936986615553,0.15467760409380263,0.06318665956822526,-0.03345669378830063,0.024065741222780716,-0.05112470364109805,0.13119677263972784,-0.012449195778274635
8.35311245918274,2.7986065302326177,0.027926904036061944,2.4549236940140045,0.9172680892574201,0.15464412392650173,0.06113903454642276,-0.026012215386567582,0.02564786193240467,-0.05088717600001929,0.13079928542110064,-0.01987436093136008
8.373261451721191,2.8169471603039153,0.031025020464442898,2.4561363135300525,0.9168180317896928,0.15517271941027064,0.06012373709556362,-0.019077910143192066,0.027208008401690017,-0.050641167160403525,0.1310451156461938,0.012291511254658438
8.393232345581055,2.8260908353527037,0.03255447037996807,2.456735043887531,0.9160079698910569,0.1548034359505866,0.05962033413121335,-0.01098646243255786,0.029890941654545342,-0.050390575241897946,0.1306398197417291,-0.020264795223234877
8.413203716278076,2.844409310072684,0.03565669301575896,2.457917389566803,0.9158646896657076,0.15542756194876112,0.05861509607755571,-0.003430059941740109,0.03251124231602156,-0.0501318930520126,0.130918419211985,0.013929973512794014
8.433321475982666,2.8627263952035924,0.03877191806989055,2.4590796827540076,0.9158672544743706,0.1561034699260857,0.05761511143973859,0.003599389696564374,0.035069185406236464,-0.049865256271265104,0.13106863526613477,0.007510802707488828
8.453301906585693,2.871807778364904,0.04029648392802372,2.459653052064492,0.9141870027359619,0.15563746629094943,0.057112810599304106,0.005419771720286438,0.033857339966430776,-0.049589608621677835,0.13072644503011288,-0.017109511801094435
8.473193407058716,2.8991974940258367,0.04497038110896246,2.461343870477466,0.9132880961009517,0.15637546257271032,0.05562064344200697,0.0073698354670075645,0.03451131459246377,-0.0492879003550006,0.13102282074328908,0.014818785658810008
8.49328088760376,2.917464843489277,0.04810483671844749,2.4624464462109863,0.913452257754527,0.1570723111134541,0.054637957606003915,0.008992183472605811,0.035175125162076326,-0.048979593589987616,0.1311477667497396,0.006247300322526073
8.513261318206787,2.935690547508544,0.05124611825593306,2.463529210513846,0.9125137891442959,0.15762649914028093,0.053656051972768716,0.006993152343562788,0.03754182277083509,-0.048655153172644364,0.13136206077852064,0.010714701439051844
8.533306121826172,2.953942080493714,0.05440631124353967,2.4645926224474928,0.9126323036144401,0.15840047943878685,0.052686242504868516,0.00483148394848448,0.039845773067505134,-0.04832482119560931,0.1315850385988866,0.011148891018297746
8.553257942199707,2.963047871835938,0.055988812628620384,2.4651169572112543,0.9120720054608084,0.1587059916645481,0.05220291475341236,0.0007957736952636649,0.04067439210616308,-0.04799326332244955,0.13167878711636272,0.004687425873806106
8.573169946670532,2.9904009128282016,0.060763467364526265,2.4666611653846036,0.9117839409207675,0.15981427750145044,0.05075821816362028,-0.00666646380099139,0.043419422068300025,-0.047636889554185075,0.13205890339705562,0.019005814034644963
8.593316078186035,3.008634763300413,0.06396861572100207,2.467666826371566,0.9115763945730748,0.1607094364330588,0.04980908462062836,-0.014079965389251175,0.04608291479550531,-0.04727566487923206,0.13234552289716506,0.01433097500547209
8.613281726837158,3.0268672911174317,0.06718604703278153,2.4686533245080424,0.9113077178082687,0.16151071986221735,0.048860843075171426,-0.030763544827177466,0.04976660502963309,-0.04690026138052139,0.1326073789924247,0.013092804762981913
8.633275032043457,3.045086201571561,0.07042645354349798,2.469621186554487,0.9105291170415751,0.16254175825117964,0.0479266268907565,-0.04702677383594423,0.0533147367484988,-0.046520666550799165,0.13313478795905498,0.02637044833151414
8.653241157531738,3.054210973794045,0.07205027576516612,2.470097969017092,0.9105580599542792,0.163028794961651,0.04746040878224768,-0.06565828502673088,0.06242772795194971,-0.0461421422063038,0.13320359682106098,0.0034404431002998948
8.673168659210205,3.081550835240561,0.07695821830306676,2.471500642687221,0.9100012656987014,0.16463412783711512,0.04606901298345895,-0.08026807168805357,0.06978216887142383,-0.045740110464473765,0.13398540249399415,0.0390902836466589
8.693187475204468,3.0997338515479256,0.08026533272196519,2.47241290188861,0.9082529039138789,0.16610083910900797,0.04515825800105259,-0.0945064593100606,0.07683973730158346,-0.04533485820742508,0.13483429206733133,0.04244447866685874
8.713200330734253,3.117971079111453,0.08357803794666613,2.473306712307053,0.9085216763156617,0.16703996151995537,0.04424794700326549,-0.11135265671767915,0.08197001514864066,-0.04491736653153983,0.13496193719048843,0.0063822561578552595
8.73328447341919,3.1361181431726464,0.08693556151623309,2.4741827157378427,0.9061301834240676,0.16872871869333866,0.043353796427983676,-0.1277166471011339,0.08686703374736228,-0.044497262184552876,0.13626821068644945,0.06531367479805095
8.753225326538086,3.145236462001662,0.08860734801852431,2.474613921970614,0.9065083837008511,0.16906152479418363,0.04290984478686543,-0.14504442965053813,0.08969081544801454,-0.04408051624589775,0.1359460145054152,-0.016109809051712
8.7731773853302,3.1724404546176665,0.09370050416899502,2.475881127535245,0.9041170325592761,0.171254833582283,0.041584265836698955,-0.16284798871768055,0.09360399129528298,-0.04364209944097846,0.13751410540561881,0.07840454501018002
8.793306112289429,3.1904890672294197,0.09714457227851037,2.4767041137472887,0.9006867781993159,0.17316433977286289,0.040715822552131666,-0.18008321106032177,0.09731275087610909,-0.04320194528245886,0.13874562655661693,0.061576057549905805
8.813250541687012,3.2085720103492585,0.10060889509299994,2.4775098300635285,0.8995767344443026,0.17468194600920603,0.039856899330833646,-0.19771972956029643,0.09923504428801593,-0.042752055718341904,0.13941493074271083,0.03346520930469499
8.833274841308594,3.2265228543959528,0.10412250214306937,2.478298447692321,0.8954508171398742,0.17668469860108763,0.039006367196161254,-0.2147757558763152,0.10101695228441963,-0.04230096245463604,0.14108716032229562,0.0836114789792397
8.853287935256958,3.2355361814675025,0.1058869103513676,2.4786865945490923,0.8951254299461783,0.17748458651161514,0.038593536518357785,-0.2323834072672206,0.10009741501625186,-0.04185569030079538,0.14112039393115783,0.001661680443110214
8.873169660568237,3.2623625764153905,0.11125338373387587,2.4798256677683557,0.8901860156066491,0.18039410617075727,0.03734521705467495,-0.25143405774766997,0.09781944732888383,-0.04139103491333479,0.14354078793358127,0.12101970012117214
8.893174409866333,3.280114772707297,0.11488067841821778,2.480564324902563,0.8849722971513817,0.18232780469828658,0.03652204672994675,-0.26982910428434975,0.09555217522670749,-0.04092592668747071,0.14482131022254974,0.06402611444842332
8.913256406784058,3.289017460211747,0.11671247533565349,2.4809279303374563,0.8839875851062865,0.18335950931997852,0.03612950872970532,-0.28927073434834544,0.09009652851231587,-0.040468026997170344,0.14528983101049198,0.023426039397111964
8.93320608139038,3.306638094885646,0.12039732752386297,2.481642457454405,0.878013288806674,0.1851079503548009,0.035324730679586476,-0.30804889253498313,0.08476875887352803,-0.04000971358039972,0.14710543338256032,0.09078011860341739
8.953287124633789,3.324251516606014,0.12414117565541455,2.4823413588209196,0.874562010359514,0.18746010663433008,0.0345392152317735,-0.32599480891581234,0.08391902168044543,-0.03954410780511471,0.14855890678272266,0.07267367000811653
8.973220109939575,3.3504117829312055,0.12982695474768605,2.4833601570686605,0.866627842274296,0.19064799243480784,0.03336934558329815,-0.34231356048086176,0.08137674381323576,-0.03906130481300292,0.15134202870582314,0.13915609615502422
8.993297338485718,3.367674818709308,0.13365602149081166,2.4840197638734187,0.8596233076011585,0.19225027618160057,0.03259294202888737,-0.35804204390939365,0.07885502919139264,-0.03857916458249799,0.15255080544529553,0.060438836973619736
9.01325535774231,3.3848797865292455,0.13755237692666705,2.4846650002285138,0.8543971978758175,0.1946771358678194,0.03185275271182397,-0.37406710296912526,0.07446953023585468,-0.03809239368092687,0.15461218010567634,0.10306873301904051
9.033298015594482,3.401891878393485,0.14146052567256998,2.485294469203953,0.8467605464341568,0.1961234191215121,0.031095763954165242,-0.38949984119835873,0.07017363035690578,-0.037606657675683865,0.1561181990032079,0.07530094487657735
9.053299903869629,3.4103846760165677,0.14344823114401334,2.485604355744705,0.8439739617624803,0.19744164068268208,0.030747372995939628,-0.4058239632512117,0.06558625832893095,-0.03713065287502546,0.15698208816027703,0.0431944578534571
9.07318115234375,3.4355673655484025,0.14942801360393598,2.486510650812224,0.8329733370149865,0.20014452610444008,0.02965451206711864,-0.4204413833714484,0.060971416317174634,-0.03663927551380276,0.16016202394012868,0.15899678899258252
9.09318208694458,3.452141798164491,0.15344279599818772,2.487096445878944,0.8244231068526255,0.2013186795260912,0.028926627314684573,-0.434486807138989,0.056461254276576715,-0.036149463101415966,0.161243587937697,0.05407819987841567
9.113196849822998,3.4685932474484606,0.15752200409414152,2.487668889764503,0.8168471444608555,0.20345610668992553,0.028236105839823434,-0.4472387024335932,0.052138983347749704,-0.035656499322501534,0.16363595165783984,0.11961818600714214
9.133309841156006,3.4848399180800476,0.16160127059069673,2.488226513351554,0.8077791171918614,0.20445644928648454,0.027527889790173007,-0.4594792430910836,0.047910857720862995,-0.03516542229683175,0.1650547102802129,0.0709379311186531
9.153207540512085,3.4929187353945474,0.16367573027988502,2.4885008009787737,0.8037609904389229,0.20567199131795966,0.027202531645253443,-0.46900838974952536,0.04275497790866822,-0.03468494080360633,0.16613704128024365,0.054116550001537256
9.173158645629883,3.5168415365417878,0.16989400185017392,2.4893017078331923,0.7901789648010751,0.2077563154996756,0.02617873522730661,-0.4790518875673988,0.040607096358079235,-0.034190327437350745,0.1694887857834746,0.16758722516154734
9.193238019943237,3.532548658086478,0.1740571073592686,2.489818477328805,0.7805011887553689,0.20854714038794092,0.025499855191042087,-0.4886522369521431,0.038478582161952636,-0.03369807062084608,0.17054835987396322,0.05297870452443121
9.213212490081787,3.548070429529861,0.17827032492833317,2.490322373045063,0.770884981233685,0.21010865085824731,0.024844901543844344,-0.4942813070260227,0.03269368498381252,-0.03320312914844168,0.173090984939257,0.12713125326468955
9.233244895935059,3.563388912498842,0.18247865930439328,2.490812663313415,0.7609455425479237,0.21070605486667665,0.0241857662358569,-0.49961329067404736,0.0270740844957173,-0.03271084604088319,0.17449707449685414,0.07030447787985672
9.253278732299805,3.570968861719843,0.184605223181091,2.4910531190010556,0.7557661945068208,0.2114242866709668,0.023869361427585355,-0.5026695006670743,0.01898934534349225,-0.03222899781072523,0.1755127920373707,0.050785877025827375
9.273183822631836,3.5934028173350483,0.19098049376758636,2.4917544238600096,0.740272600699504,0.21264765686064524,0.022898556265274796,-0.5052417880445883,0.014557682168223927,-0.03173326517665148,0.17894236562672727,0.17147867946782913
9.293281078338623,3.6081070596628155,0.1952360693266236,2.4922060812247566,0.7301437341372686,0.21289554803665822,0.02226882222281088,-0.5076111986683739,0.010252352545606027,-0.031240661325133007,0.179800411127506,0.04290227503893629
9.313243627548218,3.6153586439886665,0.19738805290606387,2.4924268080975107,0.7243353983704146,0.21358572167598433,0.02194858640731794,-0.5091374808403545,0.00446062276586594,-0.03075783697763181,0.1813578565695413,0.0778722721017644
9.33516550064087,3.629743430924022,0.20166028237417952,2.49285966029404,0.7141387547254343,0.213618520017998,0.021338232488317715,-0.5104996337581126,-0.0011509500347385414,-0.030278064317775737,0.18286047476621103,0.07513090983348736
9.353264570236206,3.643876050945671,0.20596901464895642,2.493278792594882,0.70266627433241,0.21454012030087874,0.020696440812678924,-0.5148694227523246,0.00307482841048768,-0.029793436403099317,0.18541158516007394,0.1275555196931455
9.373174905776978,3.6646894707489728,0.2124222029222723,2.4938850170057423,0.6862033903330701,0.21507502193431902,0.019770687213847653,-0.5175340150570085,0.006595614503246801,-0.029294887599768005,0.18848838091986275,0.15383978798944042
9.393171310424805,3.6783098661145783,0.21672524834566442,2.4942746048096267,0.6758280633613742,0.21524066677141088,0.019189741707783762,-0.5199589104542361,0.009939556764505326,-0.028800327615100492,0.18971157211438472,0.06115955972609832
9.413262128829956,3.6916695372199766,0.22103195356156347,2.4946508292341814,0.6640199230791437,0.2155000231576298,0.01857207515329625,-0.5310720367572077,0.024391837063632398,-0.028302203555626532,0.19230097178338568,0.1294699834500479
9.433243036270142,3.7048430117070486,0.22534776550051377,2.495016643289632,0.6532925657931428,0.21612732312236144,0.018010976463440347,-0.5415601051505771,0.038237669498544395,-0.027808381933514117,0.19454735331267692,0.11231907646456207
9.453272581100464,3.711321404147556,0.22749042476300022,2.495194227126755,0.6470301830429246,0.2160097334730275,0.017705437073070502,-0.5513030012416242,0.052949125210106314,-0.02732451156135613,0.1951671541475939,0.03099004174584863
9.47318720817566,3.7304760223869446,0.23394461583184178,2.495712035678755,0.6302377950417986,0.21625712179665316,0.016860797374219916,-0.5554544000372704,0.06660509378439303,-0.02682898974965334,0.19933569017311026,0.20842680127581836
9.493248224258423,3.7429694320880835,0.23828395991063495,2.496043918627215,0.6190907640606629,0.21772082424973854,0.016329133492890068,-0.5591777885663378,0.07966665881626174,-0.0263381831746542,0.2020492936284244,0.13568017276570643
9.513211011886597,3.7491257569041663,0.24040790688875163,2.496205361136927,0.6132757686228634,0.21697614362154066,0.01605502499526811,-0.5624822509338544,0.09140065863469485,-0.025858872952089714,0.2021072810034399,0.002899368750775011
9.533268213272095,3.7612785768473413,0.24476646528088739,2.496521321588431,0.6019966296052714,0.21891701992014764,0.015542602673221132,-0.5653611656106207,0.10259806172675055,-0.025384117325734763,0.20712042247872864,0.2506570737644376
9.553301811218262,3.773194132121546,0.24905895502714492,2.4968257780984677,0.5904150789586123,0.21836386038996045,0.015005474366052924,-0.5621083243871529,0.10860355926560719,-0.024907984042911856,0.20799368439283317,0.04366309570522642
9.573214054107666,3.790637697977272,0.2555959552517458,2.4972636165349473,0.57309530870043,0.21994500356767058,0.014230613969754512,-0.559577299694965,0.11946369992631029,-0.024421657897825258,0.21442995662576259,0.32181361164647093
9.593262195587158,3.8019878688676654,0.2600194459169674,2.4975433766414863,0.5619309784486113,0.22243852260076116,0.0137470002467828,-0.5568179170315741,0.12980169738022193,-0.023940588760528732,0.21792443515812732,0.17472392661823655
9.613252401351929,3.8075556754178184,0.2621983634921102,2.4976785200876286,0.5557265076430932,0.22234329283991244,0.01347797841607863,-0.5506853119259697,0.13869326757906994,-0.02347034723754571,0.21877183233273234,0.04236985873025123
9.633336067199707,3.818560481457333,0.26667353739574323,2.497943416680646,0.5447748116882116,0.22520218018314003,0.013013231347756898,-0.544470717756434,0.1471181600969691,-0.023005208257807826,0.22503450388091872,0.31313357740931913
9.653281688690186,3.8292961092900746,0.2711240770880151,2.4981963517823864,0.5326442599340879,0.22614759379177235,0.012489485364273337,-0.536682935344221,0.1542156148357209,-0.022537760634098746,0.22776698429989395,0.13662402094876125
9.673197507858276,3.8449928984724755,0.2779298229779759,2.4985590670818345,0.5154418396720963,0.22947038930203592,0.011765498417104465,-0.5271526396293033,0.16042761936776143,-0.022060489312093506,0.23643265584238504,0.4332835771245547
9.693179845809937,3.855196938880185,0.28255171161904963,2.4987899964793217,0.5049938878873796,0.232737930113696,0.011329012844798394,-0.5176466081230171,0.16626428837785234,-0.021589034829757194,0.24021261190716192,0.18899780323884396
9.713324785232544,3.86017719724841,0.28485023342060245,2.498900351261828,0.4986177833185037,0.2334073334335747,0.01106174091214042,-0.5111018173434245,0.1716053181229685,-0.021127618781558062,0.24220958377598434,0.09984859344112085
9.733223676681519,3.8700477720019197,0.2895530391013189,2.4991173910335815,0.48846171621936685,0.23688983213647932,0.01064375541067815,-0.5044945804042322,0.17658464256845788,-0.02067187405807086,0.24915334777449116,0.3471881999253412
9.75327754020691,3.879635822185203,0.2942798035073492,2.499322262388865,0.4764199825120254,0.23933114723863244,0.010138221237670358,-0.49848677991995055,0.18008509748433663,-0.020213352700681187,0.2538998371817214,0.23732447036151072
9.773210048675537,3.8936552041829495,0.30152171849258735,2.49961480578655,0.46011991009982917,0.24424010284333195,0.009465411786460435,-0.49394534402323115,0.18365680239341045,-0.019745541120316713,0.2643026817454297,0.5201422281854162
9.79321026802063,3.9027591228566907,0.3064434743369432,2.49980019578242,0.4502875462948274,0.24794634332965695,0.009075125919311689,-0.4892686730379921,0.1869153895353962,-0.01928410481233234,0.2681039109561212,0.19006146053457407
9.813267469406128,3.9116078050599756,0.31142640233509533,2.499974441330842,0.4391278259334503,0.2513906595250863,0.00860644048966809,-0.4802953954511653,0.18849392593483855,-0.018821912645822905,0.275593107855137,0.3744598449507919
9.833243608474731,3.9202948992470064,0.3164920077215356,2.5001428362431994,0.42961140553707233,0.25517435397465627,0.00823456955861113,-0.47135156836179287,0.1898364331129512,-0.01836626814779022,0.2810542248601897,0.2730558502526348
9.853248357772827,3.9245342464949022,0.3190521799642781,2.500222391098456,0.42402937534468443,0.25703371562619964,0.008002173537744958,-0.46259997840068456,0.18674930735209205,-0.01792163456219758,0.28339043430933053,0.11681047245704068
9.873176574707031,3.9370076100838634,0.326854861935702,2.500452510560623,0.4090954232989513,0.26284949584154854,0.0074144923677319395,-0.4546626213510175,0.18323424406666394,-0.0174703770372216,0.2961279266460193,0.6368746168344375
9.893173456192017,3.945099118721296,0.33214825926933833,2.500597336080025,0.40008213309684804,0.2664781818199645,0.007069541360586557,-0.446654865551147,0.17961756244207014,-0.017025839826898027,0.29871209608967764,0.12920847218291787
9.913308143615723,3.9529573668269165,0.33754430996281193,2.5007310645355685,0.3899074879500911,0.27090320916664096,0.006624733301064405,-0.4342547261540195,0.1823670524299951,-0.016580248804284634,0.30786074029861155,0.45743221044669546
9.933342933654785,3.9644248409999645,0.34578005362308756,2.50091999611035,0.3760208905763864,0.2771240989978244,0.006064533929490041,-0.41967983687590676,0.1818151892226122,-0.016128508394627962,0.3178488297072879,0.4994044704338174
9.953291893005371,3.971862285159847,0.3513588510674341,2.501038090840268,0.36777148585964936,0.28075308849319464,0.00574642068760937,-0.4052916885932997,0.1810481579221004,-0.0156840198908516,0.32125038380508464,0.1700777048898372
9.973181247711182,3.9754878130423155,0.35419962582390546,2.501092605534563,0.3629442209807706,0.28315452051185863,0.0055322191359899395,-0.3893390732854708,0.16912200553611068,-0.015250858394313649,0.32520676769106327,0.19781919429893158
9.9932279586792,3.982669878789594,0.3598957578746424,2.5012002282717036,0.35531457250436643,0.28641975059276614,0.00523147505216907,-0.3736734077800537,0.15744177129218898,-0.014824715276587158,0.33064781152915135,0.2720521919044039
10.013328313827515,3.989630832850152,0.36570638325528865,2.50129856569441,0.3461702139806563,0.29079213615748806,0.004852427787650309,-0.3600850520839112,0.14385298601436416,-0.014399953896739136,0.3380860836675623,0.37191360692054865
10.033281087875366,3.9964831138267383,0.37155010729682236,2.5013927622218053,0.33910236696777435,0.2935360796218437,0.0045686171818649585,-0.34674003024303757,0.1305964100914564,-0.013982283981083867,0.3414323532899992,0.16731348112184463
10.053263425827026,3.9998091817406016,0.37454420038994435,2.501435140726968,0.3344310111397278,0.29624745947808045,0.004358735702966667,-0.33017215458064175,0.11812855014937927,-0.01357459019087408,0.3452108808020764,0.1889263756038595
10.07315969467163,4.009641467944073,0.38355452798022505,2.501560559665,0.32330241226193357,0.30149624411507414,0.004339514122024527,-0.2992254145538538,0.08217658441703901,0.03125057529928492,0.3551182247251288,0.4953671961526185
10.093292951583862,4.016049685895558,0.3895985527486529,2.5016564996768214,0.31761932201139,0.3027904772879943,0.005397998596511462,-0.26924349294975575,0.04744971186056204,0.07430438379171772,0.35429756957334035,-0.04103275758942093
10.11320972442627,4.022260154583596,0.39580028496698016,2.5017317273924196,0.3102809857420986,0.30702973211943335,0.005872309669240857,-0.22811689349926892,0.015178587575148061,0.1173115807203435,0.363336069900174,0.45192501634168103
10.13331389427185,4.0284228231342025,0.4019418206762479,2.5018754139355996,0.30611832829591396,0.30702004595567034,0.008633770945202677,-0.1883789278571798,-0.015959494030054328,0.15853982345049614,0.3609552626089392,-0.11904036456173994
10.153238534927368,4.031384950650816,0.405135101005075,2.501903089416761,0.30177593680827364,0.3102569193044303,0.00826908006906188,-0.1735845540596261,-0.033369335494235826,0.1496940342285614,0.3677913631515337,0.3418050271297268
10.173145294189453,4.040237567220343,0.4145719966961013,2.502152422880465,0.2932331340785597,0.31319239159300377,0.010935776173030484,-0.15941418152203615,-0.05016170230630869,0.14113287642482,0.3719614882287545,0.2085062538610405
10.193297386169434,4.046071276078348,0.42082471406561817,2.5023988047913326,0.2901839425255512,0.3120247934306546,0.013674580455163942,-0.14555688715049164,-0.06652735228089637,0.1327825029442814,0.3695816875465172,-0.11899003411186548
10.21324110031128,4.051714234301061,0.4272242564849761,2.502675418110164,0.28433520729745826,0.3147116232803776,0.015795348421742204,-0.11959117404294495,-0.08915545244023851,0.12477911027453618,0.37685183751937057,0.36350749864266785
10.233214616775513,4.05737871186356,0.4334991812067375,2.503015757368108,0.28219647909574525,0.3127075445133418,0.018212566906699933,-0.09441198060194253,-0.1111468808798469,0.11697593608039508,0.3718828766951634,-0.24844804121035846
10.253225326538086,4.060139067620847,0.43671057149621056,2.5032116082222498,0.2797767771175678,0.31407538074500196,0.019558144513632168,-0.08170720302333329,-0.11632208617101483,0.10954158390541448,0.376808158700499,0.2462641002667798
10.27319598197937,4.068436030530085,0.44616524713027694,2.5038670810177437,0.27575919633078666,0.31291494928130553,0.02334208226267029,-0.07045385677344534,-0.11991069016256745,0.10223479296857647,0.37450592156204277,-0.11511185692281156
10.29326868057251,4.073937860471983,0.4523993278791508,2.5043538919177144,0.2744604144642132,0.3104813728215553,0.025315278557176732,-0.059468831605442474,-0.12343653299634791,0.09511600710487242,0.37290698728684113,-0.07994671376008178
10.313201665878296,4.079358674124274,0.4586610285183749,2.5049098540153687,0.2719702236909837,0.3097678962703207,0.027935826087135116,-0.05350971884706512,-0.1290031194776291,0.08823766071800025,0.3739835664525435,0.053828958285118134
10.333295106887817,4.084787769690246,0.46483022211908,2.5054857685571377,0.27095891426723084,0.30713340148779833,0.029633302341459954,-0.04763530329085584,-0.13442183796210558,0.08153990451314433,0.3707740971120992,-0.1604734670222152
10.353287696838379,4.0874792748890165,0.4679152357530885,2.505807458779642,0.2701344454536358,0.30628915873210216,0.03099696907180082,-0.04178830433610252,-0.1389687920532522,0.07514716740267915,0.3715177544028081,0.0371828645354455
10.373146772384644,4.095567006712574,0.4770479676556488,2.506795770833057,0.2690451691472449,0.3022769649958541,0.03389573839096694,-0.03572504982860285,-0.1388752095633964,0.06887302380293023,0.3663625239032178,-0.2577615249795162
10.393237590789795,4.100941164797633,0.4830657361011541,2.507487050444862,0.26839055007963225,0.29950005504759075,0.03521187583402452,-0.02975182638979853,-0.13882255064868593,0.06276890687618535,0.3653827323440906,-0.04898957795635983
10.413226127624512,4.1063370517698115,0.48900962822099026,2.508234956882857,0.26872270640028,0.29620612621020564,0.037190819119615,-0.02596514050823485,-0.13821066729402737,0.05688592132588508,0.3614198749005437,-0.1981428721773426
10.433229207992554,4.111706564698966,0.49490614672628014,2.508989766413152,0.268241167474559,0.29344758577902136,0.03827106732243236,-0.02219086097732996,-0.13765221622958562,0.051165915773661454,0.3602227469148982,-0.059856399282276485
10.45324182510376,4.114421045415004,0.497805693768394,2.5093933665420547,0.2690172038359605,0.2912915539610902,0.039251328206397804,-0.01838277537851746,-0.1321943225456687,0.04572061133087804,0.35723816624552107,-0.1492290334688562
10.473149061203003,4.1225200067268855,0.5064438673836635,2.510610868127475,0.2695576838864593,0.28617654564723777,0.04112414269837113,-0.014438122860912578,-0.12589524098308294,0.040402035056298136,0.3515093430764198,-0.2864411584550641
10.4932541847229,4.127908534610147,0.5121426262511966,2.511441084454768,0.26930817667238527,0.2837194771161328,0.041880269875111606,-0.010516458861090436,-0.11985438501179368,0.03523596049270676,0.35067250317747467,-0.041841994947255934
10.513300895690918,4.13335603988417,0.5177101551480193,2.512307999005255,0.2707205397705079,0.2792240325723385,0.04309299732755646,-0.0071058051044730584,-0.11719107124390776,0.030285416626369684,0.34440976229313147,-0.31313704421715993
10.533315181732178,4.138769256723231,0.5232713684169426,2.5131755932822,0.2706125012234524,0.2769057246738891,0.04365041336530282,-0.003698688634524895,-0.11466193592588793,0.025480289330810858,0.3444559867886978,0.0023112247783174666
10.553287506103516,4.141519076329775,0.5259720525566574,2.5136254629208983,0.27187112557196547,0.27400308825645747,0.04420356515571164,0.0006165379338203534,-0.11095754675849191,0.02092609182844768,0.3395852004040192,-0.2435393192339319
10.573226690292358,4.149717646461944,0.5340792356302294,2.5149737959729688,0.2731411931962902,0.26887359812665085,0.04515305148357604,0.006456506095526668,-0.11205740106159755,0.016506341396268415,0.3339799452174974,-0.2802627593260887
10.59325885772705,4.155182144017769,0.5394342225476206,2.5158798703765237,0.27332756685933834,0.2666214114549451,0.0454401060457483,0.012157870183295762,-0.11316204433561779,0.012221468312218186,0.33278765274755573,-0.05961462349708402
10.613234758377075,4.160710474106951,0.5446612762379541,2.516804942672432,0.27496606842635685,0.262257430704909,0.04599164158999576,0.004676463980099347,-0.12230099743931967,0.008144111122059023,0.32647210484455025,-0.31577739515027403
10.633180618286133,4.166210250433178,0.5498813713885834,2.51772613890727,0.2749878524262683,0.2597226860739425,0.04611481700742741,-0.0024371427941025183,-0.13112054545905927,0.004194621068483662,0.32613246410598506,-0.01698203692825917
10.653266429901123,4.169000056177695,0.5524342684262739,2.518194969628195,0.2760768770313658,0.2572709292751979,0.04633215856898614,-0.008710454273013701,-0.1424921212005949,0.0004698412982929758,0.3219515540095639,-0.20904550482105932
10.673176765441895,4.177335275554604,0.5600757529409303,2.5195935499426163,0.2774088620437463,0.2525970276085323,0.046551225756536176,-0.014523648269954923,-0.1515243572457297,-0.003119177850241232,0.31623960025622466,-0.2855976876669608
10.693191051483154,4.1828801764667,0.5650968020276375,2.5205237172450903,0.2770629131275754,0.24947880896880473,0.04645393319069753,-0.020018526978603637,-0.16024604442547233,-0.006590590467492685,0.31461147185567206,-0.08140642002762988
10.713249206542969,4.18851310362071,0.5700541742811724,2.5214600424958142,0.2790183728853291,0.24620311310236997,0.046505660835666554,-0.025961164119448866,-0.17326863301312703,-0.009868181389568362,0.30920317005852116,-0.27041508985754525
10.73347806930542,4.194087898706095,0.5749427388893268,2.522387969124618,0.2784423941161846,0.242611552799123,0.04627644643939998,-0.03158369129549495,-0.18580720214422494,-0.01303488448643354,0.3077213933488201,-0.0740888354850533
10.753275632858276,4.196934844681063,0.5773705750564323,2.522854652097101,0.2800113315624412,0.24095223344419664,0.04624669422389057,-0.02345534638096737,-0.2008933734693876,-0.016004653985335064,0.30441410304565686,-0.16536451515816175
10.773171186447144,4.205379377498707,0.584536579768819,2.52424194492815,0.2809290851098899,0.23548568156325092,0.04612729508371123,-0.010577772566134937,-0.23136717786866987,0.003892162960610673,0.2975811235066357,-0.3416489769510589
10.793296575546265,4.210996682036084,0.5891980440870955,2.5251665553238816,0.2808429550597416,0.23056287884563145,0.04639737862977626,0.0018982361827135626,-0.2607288209571286,0.022982559246149364,0.29395948998657806,-0.18108167600288105
10.813241720199585,4.216652270675458,0.5938297768045511,2.52608169943328,0.2818149412047404,0.22707035344867088,0.04648308002336272,0.014338037784793435,-0.2882911751842193,0.0415065700674129,0.29001940816433347,-0.1970040911122295
10.833213806152344,4.222292246228048,0.5983117407503915,2.5270208580662534,0.28222273568536727,0.2210376676513951,0.04749191978684641,0.026374607670255495,-0.31480342854141385,0.05924767444381754,0.2829654888186033,-0.3526959672865093
10.853155851364136,4.22794275834372,0.6026678179118539,2.527983689973151,0.2828672695143842,0.21448513371470423,0.04884782783044338,0.038012777980748216,-0.34027807074512245,0.07621490321941662,0.2763608185773916,-0.3302335120605848
10.873112916946411,4.233608462451668,0.6068878180157328,2.528976982346511,0.28374062302170844,0.207433378964504,0.05053541695057806,0.04925738085792006,-0.364727591511755,0.09241728723826355,0.2684621129134279,-0.3949352831981834
10.893172025680542,4.239293856554118,0.6109619608373976,2.5300072164409686,0.2848349731800899,0.1999027809323718,0.052539480560555935,0.060113248443419504,-0.38816448055772157,0.10786385734441166,0.2600733068161518,-0.4194403048638051
10.913163900375366,4.245003283159174,0.6148808712049063,2.5310805711855964,0.2861425936051117,0.19191346735555684,0.05484499269056357,0.070585212878895,-0.4106012275994321,0.1225636443819143,0.25144937203464846,-0.4311967390751681
10.933125734329224,4.247726136452002,0.6174870844513449,2.5313854836731218,0.28463634110834324,0.1972887717601655,0.0526305596800458,0.0744828914628055,-0.417498522524067,0.1118518148450158,0.26356484876684005,0.60577383660958
10.953386068344116,4.253434013331048,0.6213489185837886,2.532459765899414,0.2861639154131241,0.18887286307903103,0.05476294148839293,0.07825350524860196,-0.42403212265048085,0.10143532348563121,0.24384265828155494,-0.9861095242642559
10.973206520080566,4.259173187434182,0.6250411518331878,2.5335746319934933,0.28776564571560714,0.18032988005726974,0.056689920297962326,0.08189877863237434,-0.4302067423083728,0.09131098389993757,0.2382448194921376,-0.27989193947086655
10.993218898773193,4.267739080238932,0.6305214373392977,2.535269363062324,0.2885917403060362,0.17159727581307113,0.05871465441607132,0.09674861443705506,-0.4476065418816914,0.0748462151058123,0.22791007380692907,-0.5167372842604268
11.013379573822021,4.273531227754216,0.6338627415177963,2.536457553900815,0.2906707135092191,0.1624778019132677,0.06005128797967555,0.11105940920570259,-0.4642087448416921,0.058903678888687624,0.21739856748298214,-0.5255753161973464
11.0332670211792,4.276422229209322,0.6354964142081442,2.5370754458482794,0.29123629759104064,0.15888365247569256,0.06099840213602358,0.11967578275050143,-0.4456496473593338,0.050799930727849794,0.21545843150332233,-0.09700679898299036
11.053235292434692,4.2881105754781705,0.6415205626615815,2.5395984596684125,0.2946022990354703,0.1417312497812848,0.06398142924721999,0.11715786598595639,-0.4223640306288252,0.04284976444891519,0.18515851132133498,-1.5149960090993675
11.073253870010376,4.2940258882568365,0.6442722344252623,2.540886140146276,0.29692079120977555,0.1335113619038501,0.06476091349177501,0.11470156911314525,-0.39973331745750007,0.035138205818215834,0.18139138844300318,-0.1883561439165904
11.093209028244019,4.296978309983846,0.6455583530908503,2.5415411445967715,0.29743188243761104,0.12877628422997509,0.06517056770040455,0.11103546057594814,-0.3786913834261932,0.027867329489859597,0.1746955594757238,-0.3347914483639691
11.113356113433838,4.302948914736693,0.6480595136689136,2.542849655900581,0.29961666672307247,0.12140794127337896,0.06565707252355296,0.10745760977491604,-0.35824096822655593,0.020820240329155776,0.16232716629742683,-0.6184196589148483
11.133300304412842,4.305948442036937,0.6491666744759602,2.543515765622186,0.30049630699613084,0.11527675562028745,0.06605359395845939,0.08612236728851276,-0.3531372344771035,0.014176940024671228,0.15598198905362137,-0.3172588621902728
11.153258562088013,4.3150313345599445,0.652349893105286,2.5455170162666074,0.3039989742645172,0.10149652617008526,0.06680006367418885,0.08846383070207879,-0.33948392481253853,0.0077690035638181614,0.13076155645452525,-1.261021629954806
11.173325061798096,4.32112915309158,0.6543128255352887,2.546854154444122,0.30579003059304,0.09484146000835406,0.06689307980413814,0.09060938594102379,-0.32606094430929344,0.0015666823613371967,0.12593612863106163,-0.2412713911731812
11.193238019943237,4.327320955820231,0.6559862572558931,2.5482036927317213,0.30897427266659505,0.08453410025682612,0.0671528981311039,0.08570337938946891,-0.3098278123870049,-0.0042918596739566035,0.10618712845718825,-0.9874500086936688
11.213234901428223,4.3335172599116785,0.6576160384665352,2.549545511457896,0.31064011799803687,0.07849696995895838,0.06701009197146543,0.08089782043623205,-0.29394301533770545,-0.009956651544285081,0.09990261421859215,-0.3142257119298053
11.233254432678223,4.336656126182564,0.6582906176986063,2.5502230209593963,0.31210249296240644,0.0730247754989045,0.0670832321498293,0.06279983866672761,-0.2718081722011538,-0.01527451007132685,0.09073569813372107,-0.458345804243554
11.253325939178467,4.349249344206678,0.6608291566107287,2.552909878914063,0.31602046580537524,0.05835714591298933,0.06679607040546914,0.05139634673942869,-0.2343382765935538,-0.02038261843864397,0.06208819805890187,-1.43237500374096
11.273306846618652,4.35557929091819,0.6619518682833951,2.5542413921498692,0.31693741591797264,0.05403482186959163,0.06633881797559837,0.040359456784245636,-0.19809789075378034,-0.02531321313734229,0.061284891818160325,-0.04016531203707707
11.293232440948486,4.358795155551518,0.6623704081390615,2.5549018751115073,0.3185877333114257,0.049139543468502925,0.06598980118705779,0.036449424321500994,-0.16094574214751428,-0.029910612321077237,0.05092417035421981,-0.5180360731970257
11.313227891921997,4.365173944643908,0.66332342283435,2.5562153908195393,0.31927848957992666,0.046281517631297876,0.06534699737391785,0.03264351104160642,-0.12506802680099346,-0.034342317904347934,0.0474209931055154,-0.17515886243522072
11.333271265029907,4.371647652978828,0.6639770193435944,2.557518184575728,0.3219584708733583,0.03776658059562604,0.06469085741339085,0.03494022467284625,-0.09833075826222971,-0.03847038154122969,0.02955725476672688,-0.8931869169394258
11.35326862335205,4.378116602664502,0.664618228180539,2.558803552456448,0.3233698619377174,0.03281171891879235,0.0638630145947472,0.030827800438578704,-0.07926559123634795,-0.04237192717292038,0.02357029222507734,-0.29934812708247716
11.3732008934021,4.384589898723945,0.6652598488204069,2.5600720857499604,0.32394653013199665,0.0314117901385634,0.06297780810366435,0.026863616130523082,-0.0608319522169585,-0.04612395327691614,0.02176800803060308,-0.09011420972371287
11.39325475692749,4.3911148887598905,0.6656597928323631,2.5613258811016224,0.32537900722297014,0.02511362554163556,0.06213227803232411,0.01659619165645538,-0.03953046987128868,-0.04959758479324258,0.008151193942883328,-0.6808407043859876
11.413319826126099,4.39762512188984,0.6661555420267024,2.562558382553272,0.32561129534336675,0.024529814616110993,0.06110675312673529,0.006692997468084789,-0.018974113322940855,-0.05293181513966597,0.01014546498763691,0.09971355223767908
11.433271408081055,4.400906016102694,0.666292714305748,2.5631725058588106,0.3264652009277081,0.021148055885629253,0.060863453132092564,0.01727553486443487,-0.04369368157805691,-0.03737516015007848,0.0021478838620119234,-0.3998790562812493
11.453239679336548,4.410732484235087,0.6668360126058328,2.564979092186671,0.32774279310270726,0.017794601407275044,0.059751184442578244,0.028723573839677278,-0.062017243335132546,-0.02238932025782885,-0.003530180107822467,-0.2839031984917195
11.473253965377808,4.417293820398749,0.667178318428628,2.5661706082479374,0.3284271458872019,0.01637748541325451,0.05944845608676781,0.039620488604646543,-0.07956604398409572,-0.00797889488327606,-0.005637313507973918,-0.10535667000757254
11.493241310119629,4.423871050123813,0.6674899257782189,2.567335309426306,0.32928761313170285,0.014932221939334538,0.058744799547253305,0.058984315540072364,-0.09233135212165106,-0.0011948909093801652,-0.008334108926863593,-0.13483977094448374
11.513282299041748,4.430469844652839,0.6677692851209396,2.56851040548324,0.3306533570414649,0.012963303875833866,0.05878653911017408,0.07743970364777152,-0.1044540244262219,0.0053250391370205504,-0.012159011735941139,-0.1912451404538773
11.53324294090271,4.43374591711445,0.6679524845616158,2.5690827147842756,0.33046524696825297,0.013612396907512953,0.05847859635551946,0.08495330348761287,-0.10848735771222373,0.013842464384771096,-0.009820096284491875,0.11694577257246319
11.553140640258789,4.4469352139565,0.6685351015162567,2.5714103439572513,0.33141420944823996,0.012412430372262619,0.05859833923429499,0.08008048297744172,-0.10387328715493907,0.025969634303193614,-0.013219511085481361,-0.16997074004947432
11.573224544525146,4.453579193217104,0.6687628834303027,2.5725882872438683,0.3329677291306211,0.010381164833284334,0.059234689196863526,0.07528423622318718,-0.09925216088321936,0.03757966345407847,-0.017388374620417313,-0.20844317674679758
11.59325647354126,4.456867951352908,0.6689284393948224,2.573174782179942,0.33238387366823624,0.011298743478993423,0.059534307561870586,0.06148946732477523,-0.09423796608398514,0.054232906511649984,-0.014004567194560558,0.16919037129283776
11.613284826278687,4.463527027680985,0.6691358989377645,2.5743773889661616,0.3334791487632567,0.009463790507609373,0.0607794749895947,0.048106283202441945,-0.08926406144336588,0.07016422767589287,-0.018940023442096443,-0.24677281237679427
11.633232116699219,4.4668548317204735,0.6692724395871861,2.574968184839536,0.3336261097613611,0.009971985430492299,0.060823853048554526,0.03279848990888719,-0.07717426610083988,0.06027814201233947,-0.016726158384598122,0.11069325287491605
11.653160095214844,4.480273818410141,0.6696535536603767,2.577429788182904,0.33608408084379227,0.008034835701724337,0.06297079317941486,0.02181336988151328,-0.06858984299823712,0.0751108325198051,-0.021850349411448367,-0.2562095513425122
11.673271417617798,4.486999147853765,0.6698010952411072,2.5787051810930093,0.33641341106388833,0.006747307237914418,0.0646156795185633,0.0111775735915351,-0.06019435561142328,0.08926547507635835,-0.023856068188178536,-0.10028593883650849
11.693256855010986,4.4903974667967335,0.6698932905839048,2.579350179770504,0.3373418451680771,0.007057028029117676,0.06525505143274618,-0.00512868993291727,-0.045645426408882084,0.07796442120758318,-0.022490758838938696,0.06826546746199202
11.713177919387817,4.497142220169083,0.6700262495474494,2.580670137051466,0.3370810874984372,0.006285870951950195,0.06670412286628155,-0.02085017219568742,-0.031544558486837786,0.06699821983116667,-0.02440828903348935,-0.0958765097275327
11.733312129974365,4.500553743041304,0.6701019896429664,2.5813356544193082,0.3379270865338576,0.006482466824503516,0.06718977233745516,-0.03690709393455859,-0.017897015654961986,0.05667226356500547,-0.023645126600364996,0.03815812165621768
11.75319790840149,4.507303863064675,0.6702289477199914,2.582690111618161,0.3370334010207572,0.00625738867331186,0.06822257249267621,-0.052361645218748455,-0.004682599518413634,0.046659688222692584,-0.024463934699920475,-0.04094040497777396
11.773889780044556,4.520912825073373,0.6704421389356185,2.585517938503768,0.3382243566283406,0.00550202428667219,0.07126088837844309,-0.06576163757138631,0.015007754785893362,0.03700340448421553,-0.02608454655547332,-0.08103059277764224
11.793319702148438,4.52766329304754,0.670556458676676,2.5869499282853288,0.33677953808742805,0.0059932556471756,0.07190690626925625,-0.07863255065522823,0.03399963672267042,0.027648294895376957,-0.024696049446295554,0.06942485545888832
11.813353776931763,4.527691850965851,0.6705504350232574,2.586958857341712,0.33759438675794046,0.0060398105148796255,0.07208500038176897,-0.0872100746598556,0.05369295169066426,0.018884915228157124,-0.024423684932437517,0.01361822569290183
11.833186626434326,4.541219212766857,0.6707647061658509,2.5898997420802687,0.33636125233692765,0.00650446778811906,0.07401179451532401,-0.08811742091462525,0.0601926113039707,0.036316591305415535,-0.02341305184699438,0.05053165427215678
11.853305578231812,4.547928758494835,0.6709072573820978,2.5913883652279446,0.3345906057983175,0.0077716554958907206,0.0749060852704765,-0.08893183834939888,0.06649314348360776,0.05298625062505939,-0.020790536516635427,0.13112576651794772
11.873214483261108,4.554602734547682,0.6710763992869234,2.5928981577829946,0.33280459084524433,0.009162879764520813,0.07612622596526195,-0.08965444944028636,0.07259661122186137,0.06890312368503787,-0.01824554958650726,0.1272493465064084
11.893213748931885,4.561240851843551,0.6712745733361895,2.594435486802327,0.33100503237982454,0.010674219935104527,0.07765725317946655,-0.09028637666339756,0.07850507751101754,0.0840764409833002,-0.015406673001163274,0.14194382926719928
11.913204193115234,4.567842857574134,0.6715041429851781,2.596006421920544,0.3291937328546528,0.012301796608582771,0.07948438810283551,-0.09082874249484238,0.08422060534336219,0.09851543301779556,-0.012371771246511898,0.15174508773256878
11.933205366134644,4.57440853475568,0.6717673945137884,2.597616739042141,0.32737247227280125,0.014041771645742178,0.08159303653507294,-0.09128266941073063,0.08974525771118134,0.11222933028647313,-0.00913071869749249,0.16205262745097038
11.953240394592285,4.580937701780012,0.6720665378517342,2.599271924033712,0.3255430081878199,0.015890348167215098,0.08396878888584197,-0.09164927988717224,0.09508109760676094,0.12522736328728215,-0.005355356143322165,0.18876812770851625
11.973207712173462,4.581090146105439,0.6719118032274781,2.5992290882435567,0.32661005694260875,0.014713167242519901,0.0829892397552622,-0.09666210554723767,0.10771876123752999,0.110298817704932,-0.009071260490212119,-0.18579521734449767
11.993291139602661,4.587602694338468,0.672228428081591,2.600909959526736,0.3246289688877314,0.016989796152775172,0.08504958854974656,-0.10140140603286618,0.11986225357402899,0.09580873267030322,-0.002907045760929705,0.30821073646412067
12.013229131698608,4.597282373871484,0.6727719030150808,2.6034949336641113,0.3212631225679546,0.020180749984710596,0.08779209212832322,-0.10686621733461338,0.13175197986652298,0.0819742141756054,0.004368487284422962,0.36377665226763334
12.033158302307129,4.60686805125894,0.6734220840773514,2.606181787507172,0.3178807553293621,0.023818792124427418,0.09061394647520328,-0.11418796725983638,0.14431996869565103,0.06859692058991619,0.011628605055277408,0.3630058885427223
12.05318307876587,4.613202359404285,0.6739281354403147,2.6080069144453315,0.3155269010838016,0.026826484424575796,0.0918555171721433,-0.12113548333641383,0.15636214897702633,0.055627793307835044,0.016819746738265806,0.2595570841494199
12.073170185089111,4.616347876204021,0.6741913540660013,2.608944240216687,0.31415339072751974,0.028133526421779964,0.09275846123723958,-0.1278947201784026,0.16869181201206734,0.04340020520663639,0.018832080272329854,0.1006166767032024
12.093215227127075,4.6226049329714645,0.6747885581248743,2.610807293491073,0.3115309872008243,0.03162619402392319,0.09350738429811961,-0.1342844444217572,0.18048628686978144,0.03155556156090975,0.026646669152112334,0.390729443989124
12.113181829452515,4.625716258230299,0.6750932577942209,2.611768895768486,0.31021429729278766,0.03291916279149161,0.09443193803354322,-0.14003178679948983,0.18791512296035479,0.02038692741719443,0.027954758124120183,0.0654044486003924
12.133239030838013,4.631892170524406,0.6757897007915005,2.6136608853545336,0.3073588299087796,0.03674866588510517,0.09473099090853411,-0.14546251621240766,0.1949738826892837,0.00957795966311633,0.03726083541223835,0.4653038644059082
12.153281688690186,4.63802113250404,0.6765289459811326,2.615605335246548,0.30468075583191984,0.03985901679908408,0.09602663977367352,-0.15008585200890834,0.20041822460096415,-0.0006681274503495094,0.04206103064739608,0.24000976175788669
12.173224925994873,4.6470999197008425,0.6778022100733662,2.618513710802514,0.30033744785493105,0.04554297900540908,0.09671085526219825,-0.1503270149803741,0.20187099409202225,-0.010516029174036852,0.054978292490718506,0.6458630921661213
12.193304777145386,4.6530765938070715,0.6787535337911625,2.6204451848054164,0.2973295999459894,0.049593775284801155,0.09640482557693497,-0.15043589479285246,0.20318577513800654,-0.020031929218552375,0.060895621374904785,0.29586644420931396
12.21324896812439,4.658990365562589,0.6797883422730667,2.622400506728791,0.29418171153848355,0.053792760511227666,0.09669450520782903,-0.15492001442454867,0.20659284992495983,-0.028993342474535007,0.06978946862799118,0.4446923626543198
12.233217000961304,4.664842731685687,0.6809057318155234,2.6243280163843608,0.29104094096931327,0.057956793518905196,0.09602763042552576,-0.1591080211701805,0.20977283111185055,-0.037642381120718146,0.07770559445460012,0.3958062913304472
12.253288507461548,4.667737479263568,0.6815084951736097,2.6253033295901766,0.2891924371795014,0.060490956305290756,0.09605372458615109,-0.16325592767512076,0.21719048821078643,-0.045737912573336585,0.08134955892458429,0.1821982234992081
12.2731773853302,4.676335736615645,0.6834328916452973,2.6281838029838505,0.2841283704054809,0.06745336972260435,0.09516284500829808,-0.16965767779350666,0.2307031053769887,-0.05344695338292494,0.09807944775124167,0.836494441332869
12.293291330337524,4.681983965969221,0.684828968138622,2.6300758707826204,0.2806745742586326,0.07219716780796889,0.09401918483943711,-0.17565497529749813,0.24356969790257896,-0.06087201913785613,0.10410212186503554,0.30113370568969344
12.31324315071106,4.687561672023328,0.6863258726272754,2.6319625340266213,0.2772051308638261,0.07713148816178032,0.09319362046161665,-0.17131322740363644,0.24589919637902188,-0.06778821048744688,0.11480228637255196,0.5350082253758215
12.333568096160889,4.693071799987595,0.6879178267964625,2.6338124010155433,0.27382204095619433,0.08207097944614032,0.09177090970871782,-0.16700060724241098,0.2480144478652459,-0.07443888098803857,0.12379902504370488,0.44983693355764576
12.353243112564087,4.695799261283135,0.6887464444782003,2.634736473160189,0.2720025084542335,0.08459380369343455,0.09125285859350615,-0.17428823189451328,0.26696796554212426,-0.0806137110697554,0.12679213373781328,0.1496554347054202
12.373175621032715,4.703870268214658,0.691396914708275,2.6374496773630867,0.26642730239252393,0.09252226339352214,0.0891173084225522,-0.18009347447635596,0.2854327844388368,-0.08641820149124274,0.14638362681641404,0.9795746539300376
12.393217325210571,4.709162427558614,0.6933056295841363,2.6392143649000013,0.2627705461315167,0.09840758340428522,0.08733289391108816,-0.18551931543304365,0.3029407496657568,-0.09198365838578386,0.15326385238358498,0.34401127835854695
12.413244724273682,4.714370367589914,0.6953085967867845,2.64095017241002,0.2588659527872694,0.1039669515702402,0.08562845246981723,-0.18100191425528808,0.327820463413393,-0.09708662562051543,0.16518148445359992,0.5958816035007475
12.43323540687561,4.719511787952881,0.6974550958951597,2.6426429950510397,0.2552911766071785,0.11076172147403325,0.08363754141681284,-0.17647399358970287,0.3514493911372802,-0.10196773686097307,0.1772021358626339,0.6010325704516983
12.453297138214111,4.722051722429794,0.698540690587897,2.6434786692102894,0.25355176280306163,0.11298295016823202,0.08270072322656481,-0.15721876837594967,0.33331909641509,-0.10644590911027016,0.17787796836370928,0.033791625053769536
12.473169088363647,4.729562308983067,0.7020351946373583,2.645918359857564,0.24820415223633457,0.12153961075501828,0.07965599098283684,-0.13993168691841198,0.30273549428765106,-0.11057602627194066,0.19927303045685862,1.069753104657467
12.493330001831055,4.734499532029589,0.7045245398720766,2.6474890990250484,0.245574036752364,0.12729595117220505,0.07740481714339667,-0.12316628063591958,0.2730468613957607,-0.11450865542940593,0.20302401156650163,0.18754905548215017
12.513228178024292,4.73931023337895,0.707153634129294,2.64901412237868,0.24126082271952623,0.13351788840376821,0.07506530165870995,-0.1045470414986665,0.24218029701038102,-0.11802712489382829,0.21750657140427254,0.7241279918885457
12.533465385437012,4.74411575154842,0.7098704174448718,2.650491597526832,0.23935105118727362,0.13806070018962513,0.07267109079302092,-0.08652982954889847,0.21225722696272248,-0.12136387371088736,0.22146056571103134,0.19769971533794006
12.553243637084961,4.746430532965445,0.7113578915788767,2.6512100541213517,0.23634439160823525,0.14293423216561724,0.07136248838690458,-0.0878175290086064,0.20460173742058926,-0.1243610676871965,0.23132814232626764,0.49337883076181477
12.573161602020264,4.753402080004319,0.715871130828161,2.653293706128271,0.23163137387617294,0.15263804594028887,0.06756782556794616,-0.07159116952831564,0.1798211799006623,-0.12702868280551685,0.24877643660785864,0.8724147140795502
12.593311309814453,4.7580214522756,0.7189582352517097,2.654619487038614,0.2303586943191787,0.1559918786491652,0.06500190419100858,-0.05573878297917252,0.15566574338755781,-0.12953710123179818,0.24711297737507065,-0.08317296163939947
12.613229513168335,4.762521921074416,0.7222886153720172,2.6558880638111466,0.22701714113282545,0.1633585804006192,0.06225001435647674,-0.03732268438442092,0.13051476256172134,-0.13168162188375912,0.2640168107644807,0.845191669470502
12.633425951004028,4.76705600067224,0.7255802482546558,2.6571065920696664,0.22645044665921732,0.1657232046799692,0.05959614642220283,-0.01943417807362394,0.10606368067313715,-0.13368117719037956,0.2604304574104641,-0.17931766770082902
12.65326476097107,4.769254524702534,0.7273542493148641,2.6576911651231083,0.2243726161583822,0.16970125982243348,0.05810539072818727,-0.023626670370931593,0.07691885987014145,-0.13540530548963556,0.2705929027434677,0.5081222666501795
12.673173904418945,4.775908336504461,0.7326094681542888,2.6593691710374268,0.22195752927210055,0.1754494842160818,0.05390303465951823,-0.005357267692839675,0.04455655064785152,-0.13682753508306889,0.27707216961536485,0.32396334359485746
12.693214178085327,4.78034760258675,0.7361252653951015,2.660419777659706,0.22202791329877256,0.1760259419760645,0.051153302739297475,0.012293166416369392,0.013266976267355565,-0.13812501352109416,0.2740678051214145,-0.1502182246975181
12.713226556777954,4.782513975341845,0.7380154430636165,2.6609200027011513,0.22078940906078934,0.17953837344219384,0.04964131265864425,0.034935120367647836,-0.02416369315903433,-0.13918565710195294,0.2826560567649299,0.42941258217576994
12.734097003936768,4.786938218027346,0.7415989492285425,2.66188492685197,0.22170753876300664,0.17869192100657358,0.0468479487470766,0.05673908196924761,-0.0602605699728108,-0.14013178780000315,0.276071710136526,-0.32921733142019516
12.753249406814575,4.791272008219233,0.7454110128220552,2.6627895514761724,0.22028489341970442,0.18348922953393895,0.04393091002715635,0.08980491432431358,-0.0963209558993419,-0.140786635541675,0.2874150165929392,0.5671653228206619
12.773199319839478,4.797833870503479,0.7510377801324799,2.6640414626692683,0.22086067546271315,0.18469066888739047,0.039624309732067334,0.13769533868809603,-0.17024363344213977,-0.14117516187618978,0.28240457484672987,-0.25052208731046743
12.793220281600952,4.802281727545241,0.7546927518278015,2.6648056926652153,0.22407879129704528,0.18056909177601768,0.03679770979937097,0.18382446829156143,-0.2414668266743701,-0.14146920504091987,0.27444914406007825,-0.3977715393325809
12.813229084014893,4.806633016218157,0.7585272283596435,2.6655091756167115,0.22358951608981115,0.18221358195890347,0.03387363147594375,0.20410560033107142,-0.3033637155761474,-0.1415056124045847,0.28129744718655036,0.34241515632360553
12.833305597305298,4.81114694220645,0.7621068187919877,2.6661583488900082,0.22786818885347404,0.17554699161415502,0.031043853441462804,0.22363758844961187,-0.3629050844282425,-0.1414583582484716,0.2631248310690255,-0.9086308058762427
12.853235244750977,4.813307589473285,0.7640652001766167,2.666460494989268,0.22655783938720928,0.177783802301657,0.02959900398955822,0.23347616515679145,-0.413425760684435,-0.1412555881726453,0.2764542437677231,0.6664706349348792
12.873183012008667,4.820101567292492,0.7694679053443184,2.6672821465973993,0.2307329247995853,0.1721765404281792,0.025280560544328305,0.25214211331403646,-0.4653728244185973,-0.14081674693588855,0.25630017420323714,-1.0077034782242977
12.893447637557983,4.824767860409368,0.7728150048706615,2.667759627151008,0.23595606467239005,0.16236733801222353,0.022469186152531302,0.2700456110469928,-0.5151955145040527,-0.1403093654347671,0.24407875171037619,-0.6110711246430478
12.91325831413269,4.829443764665633,0.7762802322504931,2.668172928706496,0.23909090896035548,0.15968687299356368,0.019476823941147917,0.2776230425445027,-0.5498887332279552,-0.13958157426361104,0.24197945209882743,-0.10496498057743775
12.933295249938965,4.834281592744903,0.7793617565540172,2.6685346003465833,0.2447158349764558,0.14835506917312857,0.016692962665967773,0.284803939366611,-0.5830355090917709,-0.13879481221483297,0.21834666440617,-1.181639384632871
12.95329236984253,4.836707426610169,0.7809841170955747,2.6686934606451875,0.2465844971327266,0.14700832763276128,0.015295060733030542,0.2818583607154922,-0.6046236425533394,-0.13789836456792307,0.22439830110327152,0.3025818348550757
12.973226070404053,4.844220237815935,0.7852565910479011,2.6690891947807525,0.25477757056316763,0.13241768876629653,0.01113518141542733,0.2822849547374748,-0.6240213567550658,-0.13679845475234728,0.19298237456737377,-1.5707963267948966
12.993300199508667,4.849372267992475,0.7877788982708228,2.669284614357626,0.2604264258337067,0.11975176182084385,0.008410596367560003,0.2825786177506544,-0.6424030836839792,-0.13565244104273907,0.17229736678695273,-1.034250389021052
13.013186931610107,4.8546649353461095,0.7901503156308928,2.669417089842909,0.266939603982032,0.10920448103902193,0.005472946932292503,0.2921790195255351,-0.6589328963081725,-0.1343223363461854,0.15515671029642641,-0.8570328245263159
13.03324556350708,4.8600627791439255,0.7922015629492282,2.6694997748835925,0.27287517268010714,0.09586823019484757,0.0028001168245202325,0.3012981932232582,-0.6745392746612953,-0.13295444318594893,0.13110616461116553,-1.2025272842630441
13.05325698852539,4.862841914598542,0.7931481969274967,2.6695148999471368,0.2769904719489854,0.08956945410690383,0.0013186360238946991,0.3111137312166787,-0.6850735356526544,-0.13150563613667812,0.12423148566749864,-0.3437339471833445
13.073201417922974,4.871320577217908,0.7955255814652006,2.6694917235235334,0.28720271937895736,0.06892390837409945,-0.0027083745084299214,0.3174737389893444,-0.6824692359196607,-0.12987721054168924,0.09281555913160089,-1.5707963267948966
13.093315601348877,4.877128530015332,0.7967677546530414,2.669411690479866,0.2936124073108641,0.055303105713549607,-0.0052894136212783965,0.3234279247343034,-0.6795607240351854,-0.12822235052417533,0.061399632595703135,-1.5707963267948966
13.113277435302734,4.880112331256563,0.7972421537941142,2.669344854115475,0.2978326030448092,0.0469598041305252,-0.006804313949227545,0.33282972542835243,-0.7022965382118698,-0.12906612430549452,0.045239762041796805,-0.8079935276953165
13.133299350738525,4.886136150182406,0.7980394388433976,2.669182904119128,0.30457890759165607,0.032697173317100724,-0.009393115130788839,0.34171525530591945,-0.723755062655622,-0.1297949868766048,0.01592560073905558,-1.4657080651370613
13.153263330459595,4.892337103709052,0.7984448483010634,2.6689574617513467,0.3125092580491436,0.015515716659537307,-0.0122304038840715,0.3513018431750058,-0.7401380571247009,-0.12763719137111526,-0.015490325796842175,-1.5707963267948966
13.173145532608032,4.905155529165838,0.7983831937439787,2.6683573502823505,0.3274893088156518,-0.016317850137121087,-0.017533104048955254,0.34962692331218215,-0.7347760499839378,-0.12523777282590512,-0.04690625233273993,-1.5707963267948966
13.193277835845947,4.91177512153958,0.7979102548655701,2.667981800604017,0.33446384518685346,-0.030957109192510122,-0.02001386615621717,0.3478019629886584,-0.7290975923176369,-0.122838490306195,-0.07832217886863768,-1.5707963267948966
13.213189363479614,4.91517133366914,0.797488215054821,2.6677694980228353,0.3388232372257894,-0.04024303210870649,-0.021397596798810894,0.3332458121276259,-0.7014789052062738,-0.1204263315357065,-0.10973810540453544,-1.5707963267948966
13.233206987380981,4.922013493001981,0.7965448751852064,2.6673176214992877,0.3453452301692389,-0.05400053690920116,-0.0237820239644984,0.319006005226284,-0.6743534573205126,-0.11801685943515458,-0.1411540319404332,-1.5707963267948966
13.253307104110718,4.925535628790366,0.7958532767912181,2.6670643093896453,0.3497939363361145,-0.06376591639734615,-0.02521929041561172,0.2837422378810137,-0.6213837449502742,-0.11559212324130824,-0.17256995847633094,-1.5707963267948966
13.273168325424194,4.936255273710773,0.7934592787619388,2.6662405540074454,0.361017606874586,-0.08803691568097834,-0.029107721618428815,0.26298286150780775,-0.5907621966844218,-0.11302189650983398,-0.2039858850122287,-1.5707963267948966
13.293118238449097,4.943526865442208,0.7915823977060494,2.665635965991858,0.3660741645862534,-0.09955123144663208,-0.03134254943986533,0.24276226910680027,-0.560774564709682,-0.11046274989461995,-0.23540181154812645,-1.5707963267948966
13.313198328018188,4.950895579865601,0.7894811858808877,2.6649871924999466,0.3707316545015399,-0.11047208694705661,-0.03352630688763605,0.22307520610806514,-0.5314152343885893,-0.10791489429277157,-0.2668177380840242,-1.5707963267948966
13.333340883255005,4.9548735348981685,0.7878443859692917,2.664604250577358,0.378541122164527,-0.12669380160767907,-0.03554276134090082,0.19596856069339438,-0.4897195954601442,-0.10528618545739357,-0.29823366461992196,-1.5707963267948966
13.35316014289856,4.970381146616577,0.782002228917102,2.663063134841947,0.39142450985285,-0.15542215938305395,-0.040589283910356794,0.18234752055102602,-0.4537516688693536,-0.10242661874240729,-0.3296495911558197,-1.5707963267948966
13.373232364654541,4.9782452130440245,0.7788053888626352,2.6622310532169746,0.394937714678612,-0.1641449084930822,-0.042609430765228,0.16902201620458254,-0.41867024882828446,-0.09959227273952981,-0.34907743115681145,-0.9713920000495868
13.393221378326416,4.9861768980484324,0.7754410514561776,2.661359133841198,0.39818734459674654,-0.1721748198281054,-0.04457314316144258,0.15598962621512505,-0.3844664025752282,-0.09678317796234158,-0.3551224000293245,-0.3022484436256523
13.413214445114136,4.994170988593091,0.771922898533989,2.660448500351512,0.4011792376800039,-0.1795293555362667,-0.04648092642865012,0.14324792914371473,-0.35113119734847603,-0.09399936492442314,-0.36299204097769566,-0.3934820474185585
13.433200120925903,5.002222387918455,0.7682642644759188,2.659500266272115,0.4039191835723558,-0.1862257991104751,-0.04833328650677184,0.1307945035514128,-0.3186557003863191,-0.09124086413935502,-0.3691369426632729,-0.3072450842788621
13.453218698501587,5.010326114573575,0.7644781397785106,2.658515535002303,0.40641292348899494,-0.19228125538840535,-0.05013072994600053,0.11862692799928046,-0.28703097892704876,-0.08850770612071766,-0.37459798051871296,-0.2730518927720027
13.473217487335205,5.018477301447514,0.7605771746281068,2.6574953998042665,0.40866615021633523,-0.1977126505524982,-0.051873763906800624,0.10674278104837887,-0.25624810020895633,-0.08579992138209164,-0.3792255558371145,-0.2313787659200761
13.493215322494507,5.026671194800779,0.7565736824739537,2.6564409437908845,0.410684508112012,-0.2025367321299601,-0.05356289615990814,0.09513964125976919,-0.226298131470333,-0.0831175404370574,-0.38316118435401636,-0.19678142584509395
13.513213396072388,5.0276924296602505,0.7541427476979163,2.6560208635017535,0.4205158975520437,-0.2281154789115333,-0.058779381370053466,0.06776127390364114,-0.21053583948484464,-0.08004005909224159,-0.4095360575046869,-1.3187436575335276
13.533124208450317,5.036114515054467,0.7495393667072905,2.6548294708924804,0.4216040709896012,-0.23217108233032166,-0.06034976355381134,0.04118987136937695,-0.19507445324926273,-0.0770052545579065,-0.40550814695356285,0.20139552755620294
13.553191661834717,5.044553103019012,0.7448579459852147,2.653607274765835,0.4221688167627202,-0.23592044707159263,-0.06185987466224876,0.01541712222034377,-0.17991157152700224,-0.07401291650542544,-0.41063763815546395,-0.25647456009505465
13.573225498199463,5.052997884177175,0.7401045507644191,2.6523554720640488,0.4222260248247389,-0.23936951921324667,-0.06331056192171654,-0.009565284980091251,-0.16504479308147835,-0.07106283460617177,-0.4128727056955963,-0.11175337700661814
13.593241930007935,5.0614388652890305,0.7352851278363224,2.651075242826893,0.42179141890026306,-0.24252419680845272,-0.06470266835199297,-0.03376566166856094,-0.15047171667610607,-0.06815479853151882,-0.41590904164725506,-0.15181679758293765
13.613189458847046,5.069866365926854,0.7304055065115287,2.649767750275808,0.4208805564851654,-0.24539032988564805,-0.0660370327662838,-0.05719231928169812,-0.13618994107430057,-0.0652885979528399,-0.41861389388682646,-0.1352426119785699
13.633173942565918,5.078271015150553,0.7254713995803196,2.648434140898036,0.4195088288465864,-0.24797372044853802,-0.0673144897712222,-0.07985356925613565,-0.12219706503947693,-0.062464022541508374,-0.4213536221873926,-0.13698641502830622
13.653141498565674,5.086643748183091,0.7204884042731505,2.6470755445307526,0.4176914610229338,-0.25028012247609643,-0.06853586976686891,-0.1017577230285063,-0.1084906873350502,-0.05968086196889757,-0.42203257939792715,-0.03394786052672849
13.6732017993927,5.096257625838036,0.7137839497425189,2.6453073356727614,0.42882235852172434,-0.2657784880185473,-0.0724894666891635,-0.09688261916463253,-0.09921554052836035,-0.05661766964391544,-0.43125486435017013,-0.4611142476121488
