t,x,y,z,vx,vy,vz,ax,ay,az,yaw,yaw_dot
3.518653631210327,3.7797345072332842e-06,-4.782801253915644e-07,2.0080004486650695,0.0005657325677148456,-7.157918812479615e-05,8.004473536127014e-05,0.05632798632319679,-0.007125382709483385,0.007954782318214254,-0.031415926535897754,-1.5707963267948966
3.5387110710144043,3.0041860679829347e-05,-3.8002361477687074e-06,2.0080041564028073,0.0022433588801446837,-0.0002837198710177803,0.0003162844491442302,0.11119188672891539,-0.014056449814733507,0.015621463864780135,-0.06283185307179551,-1.5707963267948966
3.558682441711426,2.596009303383431e-05,-3.2985522409171965e-06,2.0079858981176253,0.002751972359092493,-0.00035141256633322137,-0.0002277837967016957,0.16270835659026275,-0.020953914345313393,0.022781819545378883,-0.09424777960769326,-1.5707963267948966
3.578575372695923,4.3531020884355105e-05,-5.395111513956106e-06,2.007878120251914,0.0040035776532770665,-0.000516859246725339,-0.0028794103992326376,0.21244609077222246,-0.028395927621915028,0.029738228450637012,-0.10513723859740054,-0.544472949485364
3.5986251831054688,0.00016934022660602241,-2.1896345638397642e-05,2.00782693013207,0.00873864763315196,-0.0011573205574456943,-0.0022172999115401787,0.2608377413275966,-0.035612882975886544,0.03642878524922973,-0.10909886714708206,-0.19808142748407587
3.6186230182647705,0.00010841233898015074,-1.2584253820150048e-05,2.0076850380947917,0.007110747290376729,-0.000925935429593537,-0.005102077636687659,0.30632057341823543,-0.04358307503383855,0.04281584494332362,-0.10312861477216861,0.29851261874567214
3.6387569904327393,0.00031486024791081246,-4.033820792957311e-05,2.007591972818041,0.013681436604712926,-0.0018751808119183211,-0.004184004840215723,0.3505386991269986,-0.05129936856164274,0.048949457177191714,-0.11298798321046144,-0.4929684219146413
3.6587212085723877,0.0003475112204621029,-3.650542854165783e-05,2.00737376058592,0.013218558422719424,-0.001495457233442757,-0.007039840074597851,0.38492109250920586,-0.0391724829601958,0.05480768208147874,-0.09055739571561627,1.1215293747422583
3.6786036491394043,0.0007320340828722066,-7.505675496111865e-05,2.0070235167876223,0.019854691346204868,-0.0019029461274431552,-0.010205079494537061,0.4222397939912424,-0.022356513829075428,0.06056258969018596,-0.08001371334484642,0.5271841185384929
3.6986966133117676,0.0012160154069964517,-0.00011649468747499653,2.0068318992989362,0.028664616160193803,-0.0021867089011246895,-0.008938290084326624,0.4585924814612883,-0.006114934918249204,0.06607642752520504,-0.06563564223434826,0.7189035555249079
3.718585252761841,0.0013762900423690502,-0.00014212575389433647,2.006502456815472,0.029290120430009482,-0.002301795695365651,-0.015180076392386594,0.48697430551318754,0.005629981423271563,0.07156154080780745,-0.06872837915125185,-0.15463684584517967
3.7386953830718994,0.002061343651513489,-0.00018627318410313664,2.006213521383038,0.039307464236057695,-0.00207516251713802,-0.01369597420226665,0.5146415443608181,0.016965503898121344,0.07680938593572141,-0.046305452586656415,1.1211463282297718
3.758676767349243,0.002722556816603233,-0.0002887745294466206,2.005700114345788,0.04427301628881187,-0.0033576568753138697,-0.01787971562962396,0.5466450862828733,0.022686209009522573,0.08190743991129901,-0.06910439043461514,-1.1399468923979361
3.7786285877227783,0.004173176340404173,-0.00042775989834453753,2.0051600567054253,0.05742964964261545,-0.004005081695491029,-0.016557204249007196,0.5762385438497267,0.027285924737038034,0.08665543637251237,-0.06121376702302728,0.394531170579393
3.798654079437256,0.0054389489516565625,-0.0005021050704562169,2.0048465491978567,0.06924352768824764,-0.0034145937441485935,-0.014778454724709771,0.6050135441298219,0.03173848415789318,0.09118301902763223,-0.04400463892533901,0.8604564048844132
3.8186287879943848,0.006064006655577538,-0.0005709854552586004,2.004613623398533,0.07282445466041074,-0.004063929497597592,-0.01641013275217926,0.6362359622265996,0.03704451095193263,0.09543826048951874,-0.05131797722605169,-0.365666915035634
3.8387155532836914,0.007649778706959122,-0.0006445101078390653,2.0043047816279334,0.08585378106320181,-0.0032714280854683592,-0.014460555593761049,0.666545297915759,0.042176846382516855,0.09948492041516425,-0.03463483779036647,0.8341569717842612
3.8587090969085693,0.009352216383477068,-0.0007467259698955451,2.003961763120739,0.09575809360342298,-0.0035056456137216798,-0.01411782091045298,0.6916074418597709,0.04625598893346898,0.10316126386131576,-0.034291825214592286,0.0171506287887091
3.8791391849517822,0.012462885013099145,-0.0008576951356928087,2.0035999436008973,0.11463510548327582,-0.002871606788062218,-0.010427229293423714,0.7105366457187602,0.046590631289328346,0.10641053577643497,-0.02349166799001079,0.5400078612290748
3.8987114429473877,0.014898927408052756,-0.0009057862952770066,2.00341288865038,0.12903030141812807,-0.0019363577826541545,-0.008268039711090167,0.7288869675571213,0.04693604344587981,0.10947839084723647,-0.014354817425093369,0.456842528245871
3.9186153411865234,0.016190765943828775,-0.0009449059798774293,2.003401223828319,0.13559007864857142,-0.002047947501662806,-0.0052051165808895804,0.7517626851575697,0.05170458007947225,0.11206525094875311,-0.014695112704309121,-0.017014763960787604
3.93874192237854,0.019054408599803303,-0.0009752133598436295,2.0033196988441864,0.150848009547872,-0.0009673778605626689,-0.0029393019251083828,0.7739095967905718,0.05632839697858395,0.11448926069249495,-0.006234466019769069,0.4230323342270026
3.958728075027466,0.022193841495606773,-0.0010128209695464332,2.003419293814229,0.16574698864418522,-0.000567023649409085,0.0028083453876596304,0.7939907683082055,0.057626855571599696,0.11630367048798078,-0.0033791599649881654,0.1427653027390452
3.9792001247406006,0.027518757151819163,-0.0010200638649055513,2.003653906358862,0.1896247806952317,0.0007247884482305534,0.009114702603410994,0.8133515914630862,0.058941543546702065,0.11762113141638146,0.003797612500807457,0.3588386232897811
3.998673439025879,0.03147518088248438,-0.000993693107667351,2.0038598062043067,0.20607993694789348,0.0019166051860435283,0.01147925675077948,0.8320550858048511,0.060236918024067575,0.11881360490075632,0.00923503560042116,0.27187115498068515
4.018610000610352,0.03359151699286555,-0.000980622879249712,2.0040794121252166,0.21496149440130263,0.002290840377251978,0.015493218240385045,0.8471321021298933,0.06247115164006047,0.11959326737278224,0.010474461488020559,0.061971294379969954
4.0387187004089355,0.038061151271696576,-0.000922164525322028,2.004413241669073,0.23205038207166076,0.003562333651401086,0.017891972324213596,0.8616667800665567,0.06467274411082613,0.12026414860009609,0.015052136962715679,0.228883773734756
4.058718204498291,0.04289673869764914,-0.000844337204238895,2.004937844138385,0.2500062916340966,0.0048469187007962955,0.02384900387144304,0.875061139740569,0.08122847508220307,0.12043505414138232,0.01884516659259372,0.1896514814939021
4.079266548156738,0.05082117788834519,-0.0006724580825921374,2.0057946113037226,0.27725002313822034,0.007117630585071326,0.029935041760463722,0.8857341656000637,0.09990964253047402,0.12020871554214727,0.02477452162482985,0.2964677516118064
4.098744869232178,0.056544016124577816,-0.0005089103832528472,2.0064173349258714,0.2950680063632206,0.009297263239919544,0.032336308797267906,0.8959960048669082,0.11794693470894486,0.11990523999508768,0.030071734661092808,0.264860651813148
4.118636131286621,0.0626984156931006,-0.0003433809747438848,2.0072079693899094,0.31492207250779836,0.010437374156249036,0.0376920343475703,0.9016247418093102,0.1145176004619978,0.11921155301650416,0.03132244702516962,0.06253561820384057
4.138724088668823,0.0691775432735359,-0.00011195133671748511,2.00798560303887,0.3330085116393635,0.012694641455839074,0.04006881192486914,0.9069726255058317,0.11123311152505058,0.11845598462166261,0.03593883213067528,0.23081925527528302
4.158716440200806,0.07261328702574425,-1.4997598153197496e-05,2.0084608829608563,0.3438468830159885,0.012787558904505218,0.04318876737717622,0.9090442179011083,0.10568759615688857,0.11748708598409151,0.0347680075423038,-0.05854122941857387
4.178790330886841,0.08340564796748545,0.00040774124150171656,2.0098697232165152,0.373078984354073,0.015730209603048165,0.04840727896255918,0.9087517819744869,0.1008542509653923,0.11623569600289681,0.039489912091919877,0.2360952274808037
4.198655605316162,0.09104895008191924,0.0007421998355350189,2.0108610303567445,0.3912496912632545,0.01769992316090869,0.050719120696420664,0.908291076686804,0.09613624205804984,0.11494140184024997,0.042005363238303506,0.12577255731918147
4.218645095825195,0.09508592437764037,0.0009371135662118327,2.0114249308169385,0.4026419179796965,0.01899258343373772,0.053296251600484984,0.9122210360701041,0.08687365871244314,0.11351071746759647,0.04359545101899576,0.07950438903461254
4.2388222217559814,0.10332145362630868,0.001333735888817916,2.0125134608051796,0.42092308762059016,0.020639667442195902,0.05555185810159599,0.915845324421014,0.077879196874694,0.11204399450913749,0.04518296509524378,0.079375703812401
4.258631944656372,0.11204915641324467,0.001814023838802788,2.013713587892801,0.44238492181258826,0.02347534639217838,0.05941877170827823,0.9167340446986904,0.0693540965345836,0.11037363461582443,0.0487462689035576,0.17816519041569112
4.27885103225708,0.12581156159285078,0.002592811966279165,2.0155820400656936,0.472120559423569,0.02672885784031311,0.06373661593111977,0.9168594131400186,0.061364390705097964,0.1085148078343896,0.0516620845939344,0.14579078451883998
4.298633575439453,0.1354373433545466,0.0031391408406983216,2.0168783504043,0.49045739147889467,0.027878161919473725,0.06588815414675146,0.9167918806949388,0.05360404654414499,0.10663568356124338,0.05159490725806748,-0.0033588667933459604
4.318634986877441,0.14046349260529603,0.0034622897882554877,2.017572300084791,0.5018006904969337,0.029556975534573003,0.0677751445118503,0.9189296335705355,0.04853745117498745,0.10471395914874132,0.05346341098072216,0.09342518613273398
4.338645935058594,0.15068342199329146,0.00406280567857528,2.018948616814405,0.5201985180924763,0.0304781684358103,0.06985006713972783,0.9208106298578352,0.04360391212002991,0.10277557596429238,0.05299739802336623,-0.02330064786779662
4.3586366176605225,0.161378647249982,0.004750571478879049,2.020405035399803,0.5412658334851772,0.03304534848515893,0.07284294912037285,0.9210928093824576,0.03989132203442444,0.10073164372418454,0.05525568550343918,0.11291437400364757
4.378918886184692,0.17238819078437273,0.005419213812138026,2.0218819038917832,0.5596887613856198,0.03380681618383671,0.07483705007413434,0.9211652908769387,0.036270711754490446,0.09867665122782274,0.0544435848905116,-0.04060503064637899
4.398632526397705,0.18386019870359385,0.006164968584487458,2.0234294564025466,0.5803826911807761,0.03602216016195792,0.0775558384712499,0.9143386802039885,0.030414136660414256,0.09654560287347726,0.056008451907197276,0.07824335083428391
4.418659687042236,0.20174250986167963,0.007295183358633604,2.025815931939683,0.6094925004227894,0.03788515189149379,0.08089344114654781,0.911720382770439,0.02229178115758351,0.09431264236020884,0.05592105442893036,-0.0043698739133457565
4.438672780990601,0.2141145236373993,0.008056815930858708,2.0274525143094726,0.6276997666515022,0.03825187413862891,0.08275734497999405,0.9089872659521231,0.01442237870233045,0.09207739335294317,0.0548231359207918,-0.054895925406928114
4.4586732387542725,0.2204941257961659,0.008472639113646515,2.028297099098604,0.6383502659127934,0.039227791827639906,0.08400658880143612,0.9013496670900112,0.0029998834494045696,0.08987863727249563,0.05538443005750748,0.028064706835784214
4.47857403755188,0.24010756340250422,0.009690923633727274,2.0308687517818664,0.6669745680238857,0.040371259085680004,0.08699257960299205,0.8949594343832351,-0.008707520074653106,0.08760393307938893,0.05448227359839919,-0.04510782295541471
4.4987101554870605,0.25362562079866785,0.010495846238862462,2.032625972607735,0.6848098820581237,0.04008326949475697,0.08872192707286719,0.8885725843892885,-0.020027171578776738,0.08533116555379727,0.052758516135386735,-0.0861878731506227
4.518627405166626,0.26758121717207944,0.011355923112998325,2.034429213351176,0.7045299498948006,0.04118080089802376,0.09069489715773531,0.878689490382687,-0.029172161737769764,0.08305720256907945,0.05283530024416061,0.00383920543869376
4.538680553436279,0.28184690098948706,0.012173110938448374,2.036259571328813,0.7220058741929877,0.04050855709465801,0.09233333364272044,0.868922183775963,-0.037999586533787724,0.08078711888435093,0.050697272369176094,-0.1069013937492258
4.558705806732178,0.2891617047666627,0.012617197293859218,2.037192468376593,0.7320914946603849,0.04120095325159967,0.09327509655722947,0.8617622448528278,-0.04738869997591751,0.07858531873174965,0.05104215603093909,0.01724418308814979
4.578629493713379,0.31156661245457185,0.013872536055785891,2.0400312108301413,0.7594025314968832,0.04084141810172927,0.09575635081176755,0.8520791306490357,-0.05734453340245925,0.07633993532719213,0.04873101969655691,-0.115556816719109
4.598711013793945,0.32692443928006054,0.01467724996663497,2.041961456432888,0.7763482677033343,0.039597996809990696,0.09726074442756288,0.842514114325263,-0.06693745411860468,0.07410042942536733,0.04639659943259966,-0.11672101319786243
4.6186606884002686,0.3426908753130286,0.015504384325614365,2.0439259284774,0.7948733899488016,0.039382824256937364,0.09883154194956471,0.8321646520784611,-0.07610861811046002,0.07189254160293963,0.045248971733772514,-0.05738138494135736
4.638736009597778,0.35875409348393966,0.016276224528324855,2.0459167909606766,0.8114144221391122,0.037771747174362685,0.10024736877498217,0.8219631328701716,-0.0849433336910835,0.06969126510778577,0.042590031492557134,-0.13294701206076898
4.65865683555603,0.36695144591400425,0.016677231275834516,2.0469246496123183,0.8207230716636524,0.03761424535131955,0.10097727481703683,0.8102635808902089,-0.09442220128319283,0.06757623354252325,0.042130894096245264,-0.022956869815593528
4.679612874984741,0.3919826532361403,0.017792394028287726,2.049986694878348,0.8461994814281528,0.03552561764724544,0.1030504229353448,0.7977248879835455,-0.10405178864722013,0.06543913745955646,0.0386097691108116,-0.17605624927168328
4.698633909225464,0.4090653629143327,0.01848147270637645,2.052060649047349,0.8620304222064235,0.033351393238864595,0.10433789415209298,0.785405601341583,-0.11330893708593377,0.06330919783112571,0.03580078936687503,-0.1404489871968284
4.718645334243774,0.4177625676783417,0.01883163736756593,2.053107886447918,0.8708144804362602,0.0327787171255397,0.10497065006933319,0.7697261720894498,-0.1207186975814686,0.0612719404425014,0.03500951092965732,-0.03956392186088564
4.738675594329834,0.43533177342214047,0.019462589435849616,2.0552194183077988,0.8860549074934025,0.030292818786343097,0.10617576435165568,0.754370186073645,-0.12782003263430428,0.05924047463887399,0.031832548380506864,-0.15884812745752264
4.7587034702301025,0.45327404291847345,0.02007899245049391,2.057356829308604,0.9028103197840123,0.028701402511331173,0.10739327756594498,0.7424621119872084,-0.11724860393059801,0.05726066428639392,0.029768916010393554,-0.10318161850566554
4.779164552688599,0.48073711959627347,0.020892677001516025,2.060604944340197,0.9262692553627176,0.025385976206215407,0.10910836289188826,0.7338996447196757,-0.10408170939038675,0.055274590012978894,0.025748403440982948,-0.2010256284705303
4.798743963241577,0.49940872057297503,0.021380442851426755,2.0627980344473076,0.9408627516392206,0.023433491511316153,0.11019405009675212,0.7254724243023698,-0.09121683991337376,0.053295277227562,0.02357190176051649,-0.10882508402332292
4.818655014038086,0.5088835981459973,0.0215873397259856,2.063901960525635,0.948849119023547,0.02190349033686602,0.11068967721824895,0.7145566252760395,-0.08065807568710391,0.05141494742617481,0.021935051748982914,-0.08184250057667875
4.8387603759765625,0.528002776085741,0.022009970917984265,2.0661259119560293,0.9630330847200734,0.02039409789319465,0.11169921496222343,0.7038795136613964,-0.07031733192996018,0.04953969391567196,0.02017957775367396,-0.08777369976544769
4.8586883544921875,0.5474406172237024,0.02231361167375868,2.0683706230641885,0.9779228409927783,0.016678035347016368,0.11269578642522327,0.6956246888106569,-0.06906559147505051,0.04772706994543511,0.016294662515189184,-0.1942457619242388
4.878610610961914,0.5771061712689314,0.022718588109690966,2.071773285135645,0.9991168223692461,0.012892752154556977,0.11412017309841276,0.6861549206031989,-0.0568455836685524,0.045918018505585856,0.012412577025079141,-0.19410427450550216
4.898657321929932,0.5972251170812048,0.022965874187641268,2.074064751855635,1.01274683860503,0.011875622660086292,0.1150204860236506,0.6768788110002391,-0.04491542858904286,0.04411415943940271,0.011367714042391786,-0.05224314913436778
4.918678045272827,0.6073915738250084,0.02302431747549914,2.075216664844498,1.019584782552918,0.00981163388982281,0.1154314677648805,0.6696976406841347,-0.040610016662964245,0.0424097135628274,0.009342615268917331,-0.1012549386737227
4.938689947128296,0.6279167355568178,0.02321271543107036,2.077533662680369,1.032907806141509,0.00904252968247641,0.11626264562642029,0.6626222801263182,-0.03629962174382614,0.04070865906006823,0.008533757948625986,-0.04044286601456726
4.958647966384888,0.6487148255792909,0.02329184889579358,2.0798680583416536,1.0462842761621627,0.00608878693300059,0.11708869294903444,0.6587235056883637,-0.023982051150234662,0.03907593701959875,0.005671695624255513,-0.14310311621852367
4.978646755218506,0.6803935839355914,0.023405321215598983,2.083398899325079,1.0657425699189402,0.0037998267155239045,0.11826389151169325,0.6463670650195198,-0.011387996481897785,0.03745331262141667,0.00348987068166684,-0.10909124712943363
4.998769044876099,0.7018368998804683,0.02347986435789664,2.0857715597878834,1.078548828056349,0.003695442690870765,0.1189967558043948,0.6343080588407544,0.0008986075716312152,0.03583362751068222,0.003373870461298001,-0.005800011018441964
5.018639087677002,0.7235165174200711,0.023462256807382016,2.0881590107273267,1.090660543029518,0.0014915338431266433,0.11970948028030742,0.617903401138651,0.011913070649448954,0.034287726811867134,0.0013366173130435755,-0.10186265741272127
5.038619518280029,0.7454522376720643,0.023495193823864828,2.090559954909963,1.1028582879527684,0.001838178649959042,0.12037979121491776,0.6019450510865788,0.022716351849921226,0.03274370061351653,0.0016460992320217471,0.015474095948908584
5.058647394180298,0.7565066560582994,0.023450851564707446,2.091765371096713,1.108645029325669,0.00015221557481657566,0.12069231669758149,0.5879887891568475,0.009580640928965392,0.03129610992383832,0.0001247784718341194,-0.07606603800938139
5.078778505325317,0.7787962438851201,0.02345497286380045,2.0941853801469588,1.1202685568659352,0.00021856233454020974,0.1213037631753075,0.5744297599464964,-0.0028251220748315353,0.029848568998732616,0.00018788504264621864,0.0031553285406049625
5.0987162590026855,0.8013380952789895,0.02339109398657671,2.096618109057472,1.132222922923163,-0.001537608511774254,0.12190560810308988,0.5637880929220684,-0.025363669942737026,0.028474432240175134,-0.0013595927905356575,-0.07737389165909381
5.118647575378418,0.8355711587978594,0.02334517183931269,2.1002883336067666,1.1493505509382878,-0.0018318850077316709,0.12275483161414388,0.5481355499143251,-0.019327482761345608,0.027117717495493604,-0.0015939721428561704,-0.011718967616025644
5.1387152671813965,0.8586667775018382,0.023305070088250036,2.1027487632814275,1.1601607468373052,-0.00215823423132631,0.12328361003397259,0.5329636665610042,-0.01331073343855969,0.025759976786213053,-0.0018602551183821703,-0.013314148776299994
5.158670425415039,0.8702992741450385,0.02331020497558824,2.1039826035703886,1.1654729566998552,-0.001426728800220369,0.12352135596368234,0.5179929070931565,-0.001896642298070038,0.024495807854199806,-0.0012242691423645091,0.03179929880088306
5.178659200668335,0.8937113557068308,0.023282040835255483,2.106457845429618,1.1756867543494722,-0.0013523824527839343,0.12399860662070349,0.5034592817681424,0.009294221603741515,0.023228811189888145,-0.0011508910837001451,0.003668902933218199
5.198681592941284,0.9055071590307864,0.023276173883538122,2.107699401580087,1.1809947615669956,-0.0009638625513398878,0.12423114002059117,0.4906314579038086,0.02532098256362214,0.022051256920578473,-0.0008172144054370278,0.016683833913155866
5.218631029129028,0.9531706463100499,0.023214748812159295,2.112687481637309,1.2012651099577465,-0.0009194794007771347,0.12512846262440386,0.4802344059417146,0.04542585633409966,0.020877811216089216,-0.000767159328708189,0.00250275383644194
5.238699674606323,0.9772913178459415,0.023206755697871926,2.115194148012911,1.210768424648796,0.0001852522211144569,0.12553424963007498,0.47014865238897935,0.06495123306664882,0.019700224562267065,0.00014944559090324105,0.045830245980571505
5.258665084838867,0.9894278485394042,0.02317174989787689,2.1164501008608765,1.2155302210945187,-0.00020143155049815665,0.1257105186603232,0.46189130265032946,0.07935471883798287,0.018612156453522922,-0.00017137657122923144,-0.016041108106623625
5.278668403625488,1.0261049103016526,0.02314396704480241,2.1202301920085427,1.229396457485906,0.0006715369410574982,0.1262712314316826,0.4544956989691017,0.09348237793229817,0.017545011989332324,0.0005394432348038158,0.035540990301652364
5.298749208450317,1.0507832566878945,0.023177016623453568,2.1227590541905332,1.2384142703776475,0.002679216300918835,0.12661140936260412,0.44732242710700004,0.10722105673678897,0.01647179589497164,0.0021464676293985185,0.08035121972973513
5.3185999393463135,1.075626333301937,0.02318384664219525,2.1252949362699916,1.2469238885012892,0.0033102342655615454,0.12694281544573743,0.4427001451585947,0.12686217259191013,0.01547333785862148,0.0026223176990831654,0.02379250348423234
5.33868145942688,1.1006530493179152,0.023276701727468492,2.127836820312302,1.2557327294306646,0.0060386517037596225,0.12724223605837706,0.4382050215379811,0.14587552067222478,0.014467525307555002,0.004754432183770252,0.10660572423435433
5.3586413860321045,1.1132134986302793,0.02330304613760861,2.12911052220172,1.2595194187707415,0.006501285057517606,0.127394695935687,0.433637271723081,0.16724384239875256,0.013544680595316385,0.005076801868908465,0.016118484256910648
5.378668546676636,1.1511715194179306,0.02351405364082047,2.132939768870637,1.2718469919461846,0.010022604515502015,0.12783098050448272,0.4311885148985236,0.1921016080256943,0.012642088890238583,0.007755703091987698,0.13394506115396165
5.3986663818359375,1.1766945343877577,0.023754538326938475,2.135498856264466,1.2804463878422,0.01410573418011299,0.12807471964975514,0.42875336030800393,0.21606280872564518,0.0117303261002774,0.010786298645856007,0.15152977769341547
5.418634653091431,1.2023427236965603,0.023983714851900987,2.138064523413108,1.2877911148684895,0.016166935421998603,0.1283487965580465,0.42324849810537496,0.23851308556699327,0.01088924356128176,0.01221578156120584,0.07147414576749167
5.438755750656128,1.2281828336272609,0.024356210270720914,2.1406336205998158,1.2962018566672158,0.021154605959783676,0.12855808393712842,0.41784202717240443,0.26011310473013155,0.010037796844971318,0.015843736632376704,0.18139775355854315
5.458664894104004,1.2411313827265629,0.024511259522940986,2.1419211284924695,1.2993040838576462,0.021884478935951975,0.12869232720620347,0.4066287292932007,0.27043619398123897,0.009262995695473675,0.01623008220918054,0.019317278840191854
5.478913307189941,1.280267886910925,0.025220031525363455,2.145787972649345,1.3107144003001576,0.02816376161804558,0.1290177312170456,0.3977823613966341,0.28183355456218484,0.00850780774630823,0.020700538834038884,0.22352283124291716
5.498668193817139,1.3065611520417801,0.025840408892826256,2.1483699778835184,1.3185833180515718,0.03391034246844318,0.1291802346898715,0.38914390995220227,0.29274385724090674,0.007740560841305427,0.02456272527304515,0.19310932195031327
5.518617868423462,1.3329802462299414,0.026516702871229644,2.1509569014210865,1.3255466958032225,0.03840488190498827,0.129372009213394,0.37876604035180506,0.30093060992976445,0.007042104524595781,0.0274674984895511,0.14523866082529757
5.53870153427124,1.3595662545494713,0.02734551318903464,2.1535457027982816,1.3330204123186407,0.04450215957773892,0.12950575621482255,0.36864884935160774,0.30873360145947126,0.0063304235344461115,0.03147676542104216,0.20046334657455311
5.558677673339844,1.3729013788781392,0.027788165850039424,2.1548418901117508,1.336208817278743,0.047183184172285626,0.12958577837543314,0.35502688397210636,0.31626361977313916,0.0056918123671383415,0.033040004850674265,0.07816197148160509
5.578740119934082,1.3996956710325945,0.028795565772504726,2.1574347007376145,1.34317622741269,0.05358067789226678,0.12969310702145398,0.34177559497659676,0.32342464320520636,0.005038662140547117,0.037217408905572125,0.20887020274489299
5.598629474639893,1.4131430240866283,0.029337564447278783,2.1587328209093513,1.346418155645167,0.05654659390403079,0.1297641698073608,0.3253014738115332,0.32198249387763944,0.004455984677640523,0.03887413927495631,0.08283651846920925
5.618655681610107,1.4672830452737713,0.031860707030204244,2.1639280245875323,1.3598661278261965,0.06964810641739005,0.12996067563799718,0.3091565446848308,0.32804991717652854,0.003891133165190147,0.04725240815713727,0.41891344410904807
5.638759136199951,1.4945411456409827,0.033319667794540264,2.166527977861954,1.3658916122857652,0.07626714047670435,0.13003271527600183,0.29346748264259764,0.3338011227071831,0.0033101815993431126,0.05071180906924644,0.17297004560545837
5.658702850341797,1.5082271631177715,0.03411822286238361,2.1678275992262104,1.3690452654187564,0.0801991978989083,0.130034016139342,0.277138261008607,0.3370069057089571,0.0028003606744039103,0.052864511943550685,0.10763514371521232
5.678880214691162,1.5494505759286585,0.036698228458371986,2.1717289537979165,1.3779997363576348,0.0909444216513779,0.13008751319181006,0.2601018110813792,0.33427727124936074,0.002313694090309213,0.05930066265702427,0.32180753567367937
5.698635816574097,1.5770614798199212,0.03858378949747246,2.1743311334578945,1.3830354999042638,0.09760252554839176,0.1301287709003147,0.24355586611793584,0.3315302668421352,0.001809129552894952,0.06265548437543833,0.16774108592070291
5.718595504760742,1.6048095724260611,0.04065650173970113,2.1769320030299735,1.388777627892335,0.10563540959923341,0.13010878863789183,0.23056122082727518,0.3301536029486157,0.0013727606412801947,0.06710309898410971,0.22238073043356898
5.738710880279541,1.6326303891981573,0.04283514519221406,2.1795344233058405,1.3932619507558617,0.11222410185618648,0.13013172073957305,0.21793159016696603,0.32870348512662884,0.000917305218166529,0.07046636200952561,0.16816315127079484
5.758752107620239,1.646598444767801,0.04402168622583603,2.1808342209571974,1.3960104002962082,0.11688096716428155,0.130092233344761,0.2049205387619666,0.32781509583055113,0.000528467578170588,0.07279862682037441,0.11661324054244027
5.778557538986206,1.6885972823824498,0.04772753731041954,2.1847358013874683,1.4028071411696357,0.1282038551587462,0.1300637110906423,0.1947195123955074,0.32851350067037055,0.00016171306369155625,0.07907455340607239,0.31379632928489887
5.798683166503906,1.7166917039703231,0.05035735558752268,2.187337082459478,1.4066020081476678,0.13477976254372262,0.13006310433318052,0.184816620590956,0.32905053712243126,-0.00022581244302135057,0.08195394012796786,0.14396933609477358
5.8186256885528564,1.73078145188913,0.05177131058536282,2.1886359107579914,1.4087771158739053,0.13953716009509629,0.13000734242964096,0.1774915287127309,0.33592958224105723,-0.000549663008895589,0.08427167517403511,0.11588675230336243
5.83873724937439,1.7589920145493179,0.054629679427435046,2.1912359249890807,1.4122554239742764,0.1463213978819422,0.12999292840378796,0.1703736429920533,0.34243179377078864,-0.0008953378632105169,0.0877375764590167,0.17329506424907937
5.858719825744629,1.7872879203204886,0.05768294369391366,2.193834019911464,1.4160004693601171,0.15465013622297713,0.12993471211486363,0.16542626187151963,0.3521980246391737,-0.0011796636040898457,0.09187405797248616,0.20682407567347294
5.878973484039307,1.829841490071598,0.0625009228948457,2.197730985963884,1.4208677173136242,0.16571414758149622,0.12988234635779672,0.15982192436519005,0.3462613626739897,-0.0014458311563662288,0.09730767148473651,0.27168067561251785
5.898741006851196,1.8582904458308789,0.06588406555044392,2.200328324813217,1.4240098864117121,0.1725805428138232,0.12985057376859446,0.1544302232116238,0.3403888054825012,-0.0017352651767488006,0.10010516568783556,0.13987471015495245
5.918663501739502,1.8725257911955917,0.06764710320345722,2.2016262814590783,1.425055392687145,0.17651291723961884,0.12981717050621275,0.1393770535995572,0.33222358296466853,-0.001968320378599168,0.1017927506048868,0.08437924585256162
5.9386842250823975,1.9010537971819828,0.07124326821844892,2.2042222144597408,1.4276967770600488,0.18307678647260708,0.1297752723791263,0.12484828650739783,0.324184228995544,-0.002225466434858882,0.10498657439214787,0.1596911893630537
5.958638429641724,1.9296233937805563,0.07502989756633882,2.206816588116603,1.4299451083428123,0.1910740302626694,0.12971126692433824,0.11732107055073047,0.3177585908891938,-0.002426218684498749,0.10871870429825137,0.18660649530517492
5.97883677482605,1.9725760480837773,0.08095623200824485,2.2107060319681127,1.4334087710670698,0.20197164418537059,0.12961341238677757,0.106186125412447,0.3057598925323339,-0.0026102653945609317,0.11376528932693786,0.2523292514343245
5.998670816421509,2.0012647393008858,0.08505602968838975,2.2132977646206635,1.4354246253058311,0.20796897577196713,0.12955915479181798,0.09546844441018161,0.2940154343598395,-0.00281967991592928,0.1158858609245823,0.10602857988222247
6.018600940704346,2.015621342676163,0.08720224353061515,2.2145920953823244,1.436202023667197,0.2123087754457815,0.1294969139112406,0.08351469021187995,0.2846272473686545,-0.002975788968673745,0.11777233819243049,0.09432386339240928
6.0387187004089355,2.0443613116369304,0.09150472779689284,2.217181426786695,1.4377565219719377,0.21790896886942562,0.12943561914732782,0.072009474490998,0.2754225239361569,-0.003157993954033364,0.12024059610295534,0.12341289552624257
6.058676481246948,2.0731388270811504,0.09600916149070296,2.2197680579519306,1.4393295983284193,0.22560568042756804,0.12933580637145328,0.06364928405725993,0.2660660617369988,-0.003286192775021205,0.12371486934425713,0.1737136620650892
6.0790534019470215,2.1163498261078697,0.10295194354623598,2.223645814263384,1.4411297346367176,0.23506071757274544,0.12921241080326681,0.04340879318621063,0.25619580013026705,-0.003399837251895025,0.12779367933744146,0.20394049965921646
6.098843574523926,2.145179789248165,0.10770374127060503,2.226229373568633,1.4418015110095805,0.24008630288220298,0.12914305001231488,0.02388814335148366,0.24637021279691745,-0.003540741269870681,0.129447941374202,0.08271310183802782
6.118620872497559,2.1740294124766177,0.11262729387880158,2.2288103159006725,1.4424604954071796,0.24674939329321555,0.12904144931608208,0.011583763864277721,0.2380762119142374,-0.0036302119595424992,0.13246823418215792,0.15101464039779522
6.138684034347534,2.2028801433928376,0.11760935244694043,2.231390411479407,1.4425732154695674,0.2514293755862799,0.12896771720309175,-0.00023055443519005755,0.22994980218406644,-0.0037476093638146675,0.13414392670335662,0.08378462605993509
6.158645153045654,2.2173224906608153,0.12017849569676593,2.2326792110610074,1.4429017553133574,0.2548643189324493,0.12891011117174625,-0.016082885208897012,0.2197823408092635,-0.0038179192820809436,0.1355074127311351,0.06817430138892355
6.178797721862793,2.2461762828657874,0.1253190725780751,2.235256643586401,1.4424266539702058,0.25916026751214244,0.12883281212688433,-0.03132636800614268,0.20985179295442868,-0.003916682525846554,0.1373550148732856,0.09238010710752587
6.198713541030884,2.275056657759441,0.13061214434979643,2.2378318629239837,1.4427090116664292,0.26510249456829793,0.1287383496916482,-0.03729154244711336,0.21702530289200253,-0.003967221917018866,0.139886234020151,0.1265609573432691
6.218646287918091,2.3183400522172044,0.13869135210448066,2.241692005695836,1.442024784197338,0.2722850732548223,0.12861329917844846,-0.04606138048058509,0.2064721541898106,-0.0040071483676498544,0.14289191454704264,0.1502840263445826
6.238669157028198,2.3471707712292416,0.1441776570338117,2.2442634661169385,1.4410192326355924,0.2763110797298824,0.12853251202900853,-0.05442677264638789,0.1961701254274405,-0.004076410081454135,0.1442125947772661,0.0660340115111735
6.258763790130615,2.36158217818867,0.14696439482941545,2.245548685388013,1.4404654365839722,0.2785741477639489,0.12849465214634617,-0.06611423138270688,0.1863563870137098,-0.004103075869325107,0.1450639878681752,0.04256965454545458
6.279503107070923,2.4047706675895184,0.1554272321355027,2.249402004522799,1.4385644059789058,0.28491668648226676,0.1283810444349404,-0.06999811005889273,0.20283558318482148,-0.004121102964450233,0.14806701195611272,0.15015120439687557
6.298613548278809,2.43352770810148,0.16116719810522895,2.251968798485746,1.4371274269854024,0.289132612265441,0.12829819180308644,-0.07366362565401391,0.21864625119478093,-0.004169110694663844,0.14947652516662968,0.0704756605258483
6.318586826324463,2.4478907369415426,0.16407194974414907,2.2532520172249906,1.4361916166443345,0.2914559389589264,0.12826953879079597,-0.0793361637314314,0.2337872037464722,-0.0041984168456779694,0.15035146350352546,0.04374691684478904
6.338819980621338,2.4765983371207807,0.1699488026915245,2.255816564884385,1.4345503745240333,0.29627765139708456,0.128185031095106,-0.0847442448866749,0.24827602377800134,-0.00425722372762761,0.15257222060960585,0.11103785530401922
6.358707904815674,2.5052574481540875,0.1758530336655086,2.2583809211583956,1.4324003876273383,0.29940689903252404,0.12813832585477486,-0.09239544409366972,0.2557257746938871,-0.004436950075099036,0.1536748871269631,0.055133325867862126
6.378668308258057,2.533886482745046,0.18189279313069037,2.260942787101846,1.430478632840192,0.304592527748499,0.1280475895005086,-0.09972709655058769,0.2627699420260231,-0.004640638966101837,0.15606256079568404,0.11938368343604733
6.398654460906982,2.5481735939962515,0.1848823806868759,2.2622245856089145,1.4290658564098362,0.30532865935081954,0.1280439720440295,-0.10537795022870727,0.2739589178802227,-0.004916801994259333,0.15589422860515567,-0.008416609526418206
6.4186108112335205,2.6052384121259675,0.19720352096093838,2.2673453164649087,1.4244730738986027,0.3136447051440507,0.12791602062171797,-0.10757035902847964,0.28554811085288145,-0.005333530174449787,0.1602308336920153,0.2168302543429812
6.438728332519531,2.6337062217440805,0.20353426964805882,2.2699025416416987,1.4223011370271104,0.3194669540805195,0.12780505828575658,-0.10959566160378517,0.2965853818159563,-0.005765155480085951,0.162080020007751,0.0924593157867859
6.458688974380493,2.6479072791038623,0.20668217289618154,2.2711819512427676,1.420753875305853,0.32077496443092235,0.12778976569754125,-0.1053858563251931,0.3073606551704344,-0.006251849493252467,0.16236028933543345,0.01401346638412182
6.4786765575408936,2.6763015591794104,0.21315983632692087,2.2737364631487824,1.4186881039649708,0.3270255433112663,0.12765976329169307,-0.10119434519583594,0.31761016802823977,-0.006750327674166073,0.16544430947611755,0.1542010070342048
6.498680830001831,2.6904583194635716,0.21637815555934278,2.275014704285473,1.4169655271741806,0.32837420156037744,0.12764452313134977,-0.09750792742306963,0.3297765105202301,-0.007298533698757687,0.16539880498917414,-0.0022752243471702016
6.5186638832092285,2.7469966606723237,0.2296640295332734,2.280118397742845,1.411511571633786,0.338883154807511,0.1274396990861372,-0.09396855690552262,0.343083900186778,-0.007967727872978359,0.17082077086248315,0.27109829366545046
6.538721799850464,2.7752083347759298,0.23651116510785708,2.28266555335942,1.4096676646568214,0.345872666912428,0.12727361825602898,-0.09042078711587602,0.35576331150975415,-0.008641018610975715,0.17279585297091016,0.09875410542135032
6.558660507202148,2.7892554182240143,0.23992266348448213,2.2839397952583567,1.4075087036944625,0.3477026757612045,0.1272356365537084,-0.08632569359475516,0.3698665106738413,-0.009349024989658951,0.1733362907546292,0.02702188918595194
6.578686475753784,2.81738859941499,0.24695159730051425,2.286482590893788,1.4058230155660447,0.35523550607818966,0.12704156104578573,-0.08224564903312873,0.38330672118298076,-0.010058804746177217,0.17682380814623055,0.1743758695800679
6.59865403175354,2.845415450459085,0.2540235493932744,2.2890251838060673,1.4023845017057672,0.36029561971269763,0.12692924610901352,-0.07841885919704208,0.3976638161056418,-0.010835479351331261,0.1785364157932534,0.08563038235114284
6.618635892868042,2.8874058046609012,0.26494408735717756,2.2928308060215903,1.3987646017965574,0.37043741590125584,0.12667208341475286,-0.07392084559600884,0.4118883758243783,-0.011676598584450366,0.18307824943629702,0.22709168215218067
6.638764381408691,2.915366610427956,0.2724361273812558,2.2953618565249965,1.3973308371761497,0.3788117208211104,0.12643017854485722,-0.06946216381702708,0.42542881376798336,-0.012513110985878447,0.18573161703483976,0.13266837992713665
6.658732891082764,2.9292938512249673,0.27618882805908335,2.2966278423488236,1.3954378111422565,0.3816012751633719,0.12636298378496708,-0.06809471869368675,0.4413714858425193,-0.013368164198972902,0.18645984537661642,0.036411417088833
6.678622722625732,2.9571890825303986,0.28391015229953115,2.2991523717010414,1.3940900679922368,0.39058173525016493,0.12608712216160547,-0.06667015737719538,0.4565475565986861,-0.014216945251616373,0.19046220227129362,0.2001178447338603
6.6986753940582275,2.9710845451550556,0.2877776726482732,2.3004153584954246,1.392226272546808,0.39354916989857963,0.12601789994387563,-0.06772435809474157,0.47207313706563203,-0.015081990534026042,0.19080796438699554,0.017288105785095986
6.718631029129028,3.026666888579669,0.3037960912918847,2.3054489097716306,1.38806262266113,0.40991785895033056,0.12552681069545346,-0.08956921461202887,0.46663395188452583,-0.01603119390663231,0.1984182638563996,0.3805149734702029
6.738658666610718,3.0544088131866465,0.31208739845258293,2.307956177044051,1.3860598386971377,0.4191937821516096,0.12519679104494708,-0.11056917896981684,0.4609115361100471,-0.016968844097885266,0.20041646040693406,0.09990982752672295
6.758662223815918,3.068254340969767,0.3162665183502491,2.309209257449769,1.384653467129936,0.422819415196561,0.1250721322744201,-0.1210402436033905,0.4578409878548669,-0.017910712659605726,0.20158283272402677,0.0583186158546356
6.778647422790527,3.0959225299417845,0.32481425182022616,2.311707055792529,1.3821322402790153,0.43194247729130286,0.12470460450897321,-0.13099728409461564,0.45440472627874534,-0.01883996045607039,0.20550762131291256,0.1962394294442893
6.798676252365112,3.1097696810269353,0.3291559247838746,2.312954987068802,1.3816682326661442,0.43645539067448896,0.12455881542696723,-0.14295499332410302,0.4459659116889947,-0.01977114472892559,0.20626254816166067,0.03774634243740582
6.818655967712402,3.1649960260892755,0.3470162145319801,2.317923949158399,1.3778169072330662,0.45554369008203655,0.12381511464498356,-0.1384511322757304,0.45194129315719256,-0.020765025849101722,0.21461142440251546,0.4174438120427393
6.838759660720825,3.1925249720225937,0.35621785181921667,2.320396033019602,1.3750925496423543,0.4646384173442567,0.12339001399228233,-0.13399206345650205,0.4574550077883409,-0.021742271749597353,0.21606811189881636,0.07283437481504507
6.858684539794922,3.2062985854497636,0.3609213515414299,2.321628653984893,1.3745515733335625,0.47021974177686204,0.12315650432267049,-0.1331487542255885,0.4627739636370543,-0.02270977166200658,0.21804809570750283,0.09899919043432348
6.87897801399231,3.2474788999136734,0.3752547133178768,2.325313682952203,1.3704435155805024,0.4844683531479321,0.12248361916627032,-0.15652681384849873,0.4447656262521917,-0.0237016695102643,0.22381017398505998,0.2881039138778574
6.89874792098999,3.274854954717876,0.38503184282749714,2.3277585498159055,1.367087258826355,0.4931852279522891,0.12199982355414112,-0.17893880959029476,0.42695464779857956,-0.024674766011918165,0.22584372355671922,0.10167747858296217
6.918638467788696,3.3021844265831812,0.39502986037931953,2.33019403232534,1.3640608170906048,0.5029039466219873,0.12150665589988598,-0.20003953328264248,0.4060826518341057,-0.025657923468274973,0.22952683082000247,0.18415536316416237
6.938692092895508,3.329424274925229,0.40516778087442973,2.3326189693158996,1.3598567843120253,0.5108196281845503,0.12098383265012315,-0.22020956029497804,0.3855401937621236,-0.026621077188634466,0.23193853019165944,0.12058496858284862
6.958676815032959,3.3430636595333563,0.4103637339736117,2.3338268869701584,1.3589621526239988,0.5164295505993002,0.12069001705990605,-0.24461536306880105,0.3562042138718533,-0.02756687631987386,0.23354225934308337,0.08018645757119636
6.979193925857544,3.3838051257860062,0.4261262838815807,2.33743420086591,1.3537584547581782,0.5300636435887869,0.11982462141081378,-0.2739910774612856,0.3299331415222168,-0.02852356892442191,0.2390473294523372,0.27525350546269145
6.9986560344696045,3.4108236012889557,0.4367918208211459,2.3398249258691477,1.3479953697755056,0.536404400381406,0.11924476109272816,-0.3021090576822392,0.304238048455344,-0.029458917361620065,0.2403045445913783,0.06286075695205451
7.018617630004883,3.437854812875091,0.44776105530675875,2.3422007603818895,1.3450531590014723,0.54686441348382,0.11856893178489437,-0.3295131163670448,0.2848845188831108,-0.03038944137038668,0.24436274681957437,0.2029101114098042
7.03868842124939,3.4646882079155135,0.4587540465716072,2.3445660001926267,1.3381990860132311,0.5523712884007194,0.11795202068634789,-0.3556910727605526,0.2658570926495271,-0.03129802472432733,0.24589528201553268,0.07662675979791533
7.058746576309204,3.478143263573326,0.4644072253350113,2.3457422532094125,1.3370241846606221,0.5582374513413105,0.11758354732765723,-0.37784053692082,0.25840013409857737,-0.03218320896539161,0.2478418774792206,0.09732977318439584
7.079613447189331,3.51818524256033,0.4813757752183954,2.3492549004542562,1.3284440067982812,0.5688433885104986,0.11660131174535183,-0.39053420658876575,0.2483566844005083,-0.03307205080700589,0.2523425878597565,0.22503551902679497
7.098732948303223,3.544675207437117,0.49280164609714777,2.3515802541590394,1.3205126860096137,0.5737103103641024,0.1159311715897661,-0.4024728271289459,0.2383399902099123,-0.03393819672445653,0.25358521526834954,0.06213137042965222
7.118614196777344,3.5711180068607766,0.5044344297290234,2.3538924252470927,1.3150552085484961,0.5810292000415277,0.11525643119461357,-0.41927523571510694,0.22145821412080277,-0.0347982702928156,0.2566664639545624,0.15406243431064226
7.138722896575928,3.597334182473211,0.5160981928627674,2.3561905380368025,1.3065094491911904,0.5852917026221359,0.11455205798519541,-0.43514648196469263,0.2048349680531244,-0.035635210756484674,0.2582642727416786,0.07989043935581197
7.158688068389893,3.6052071628802214,0.5196607675618101,2.3568777608105815,1.3049793040670734,0.5878693661649256,0.11434668426861695,-0.4510926176776194,0.2003952178070743,-0.036444420590826906,0.25897226261739625,0.035399493785881475
7.17879843711853,3.631215513667689,0.5314579284123647,2.3591573527969665,1.2958057025007794,0.5918312857055337,0.11360989241417416,-0.46611446640849225,0.195765316763527,-0.03723101044894602,0.261431755885559,0.12297466340813745
7.198694229125977,3.6429110671354055,0.5368519090126652,2.360179830353628,1.2929885361822877,0.5952127500011217,0.11331119646023903,-0.47764902817941784,0.1880369056070695,-0.037996773129513446,0.2622884703712889,0.04283572428649407
7.218631029129028,3.681538263244915,0.5548396158607277,2.3635643814541707,1.2800667116368203,0.6020734976960352,0.11223149771548878,-0.4840131144568123,0.17883031948601655,-0.03876218211610812,0.2664090861262607,0.20603078774859007
7.23863673210144,3.7070424002565705,0.5669162376816953,2.3658012091015217,1.270327750559609,0.6055579679821231,0.11144879267803584,-0.4897849358816033,0.16961541182961723,-0.039504487976278334,0.2675323875322686,0.05616507030039575
7.2586939334869385,3.732391326784341,0.5791021263612779,2.3680257095259267,1.2614046223578883,0.6098143618510209,0.1107375494534998,-0.49455384986017054,0.15662385310441693,-0.04023898939146234,0.2700587097480369,0.12631611078841587
7.278937101364136,3.7700106714122104,0.5974856845771508,2.3713316697224647,1.2464847372076364,0.6150625493185559,0.10957858151620027,-0.4983683087954374,0.15983679899919756,-0.040967256599428896,0.27335872425403673,0.16500072529999077
7.298722743988037,3.7948404642456004,0.6098190930924623,2.373515000546545,1.236483564610617,0.6182874133403966,0.10875215297992673,-0.5016628805371268,0.1625702498391134,-0.04167163386830422,0.27476498911815517,0.0703132432059217
7.318632125854492,3.807160377491607,0.6160135840948778,2.3746016285306566,1.2308719959626648,0.6199934591089178,0.1083622233790247,-0.5009738642019222,0.16529049453163344,-0.04235250916431655,0.2758714572951635,0.0553234088504162
7.338759183883667,3.8316776885798682,0.6284466680868911,2.3767603582770294,1.2208627407733434,0.62332236828458,0.10750855972534432,-0.49988558626068497,0.16751907065857352,-0.04300997273072928,0.2781860659531632,0.1157304328999853
7.358656644821167,3.8559435152268513,0.6409154076295449,2.3789041367531523,1.2095428238126948,0.6259316292362294,0.10669794080623032,-0.49736760002380387,0.18086689879698464,-0.04365295113817312,0.28017774327473965,0.09958386607882286
7.378571033477783,3.8919582477631205,0.6597302780891795,2.382086638063859,1.1932832008544214,0.6301125763745459,0.1054167693601798,-0.49188216430542814,0.18933631323732922,-0.04428281479478877,0.28368152502110133,0.1751890873180839
7.398683071136475,3.9157259135508697,0.6723709219126162,2.3841860760792133,1.1835024946607513,0.6339774028993416,0.1045250113228368,-0.48614721062036853,0.19701557845019602,-0.044889074426300135,0.28528872213612555,0.08035985575121085
7.418594837188721,3.927479532751997,0.6786633035901347,2.385229681066439,1.177006923095658,0.6345194349346593,0.10408685380672748,-0.4845945441935778,0.22408110248700178,-0.04547057407234249,0.28609752318790305,0.04044005258887484
7.438706874847412,3.950922874854777,0.6914002353128045,2.3873022864125923,1.1673337294143868,0.6392587943337787,0.10317181913415105,-0.48266196685827023,0.24959854758984903,-0.046029080256096935,0.2891289037545639,0.15156902833304287
7.4586780071258545,3.974071102324563,0.7041020959273356,2.3893573873277942,1.1551345024393886,0.6408869191503211,0.10226775562456333,-0.48251033458211723,0.2614475671487798,-0.046567674358994095,0.29075767371652406,0.08143849809800763
7.478662729263306,3.99707732143264,0.7169728648418275,2.3913933941332286,1.145489312224264,0.6462262142661969,0.1013312051030028,-0.48193927659461955,0.27232038562095817,-0.04708362300073189,0.293909681613544,0.15760039485099853
7.498659372329712,4.008445452393988,0.7233359104429826,2.3924049052250544,1.1389722099268835,0.6455067929816527,0.10087202396893565,-0.47230967799213325,0.24337508034417304,-0.04757611763826234,0.29347451989305684,-0.021758086024359358
7.51864767074585,4.042340836339838,0.7427218288172789,2.3954106134456565,1.1231573223850573,0.6500758620109942,0.09946776575089267,-0.45864088433404776,0.20403055500754852,-0.0480499359907822,0.29826280300129904,0.23941415541210986
7.538848400115967,4.064713163150598,0.7557615753275754,2.3973903282885005,1.1141207402799662,0.6537707115424044,0.09850221255823667,-0.445026414547873,0.1656071601904666,-0.04850173248218658,0.29918648016044136,0.0461838579571161
7.558662414550781,4.086801670799747,0.7688534541432965,2.3993504187206502,1.1026452455519966,0.656590565145408,0.09751593135674047,-0.4325205558073556,0.11382372567977282,-0.048929451261422764,0.3021182688318276,0.14658943356931076
7.57865047454834,4.10876890472406,0.7820046495530815,2.4012909240174825,1.094119792671916,0.6583611300619906,0.09653324412522078,-0.4200268337742902,0.06346974103741991,-0.04933571553971536,0.3031100942041758,0.04959126861741048
7.598702430725098,4.119607541400449,0.7886753780982428,2.4022518152118164,1.0876807901126897,0.6610742979964792,0.09597685502694812,-0.4090690203008268,0.013174821611950499,-0.04971512241710742,0.30498423556463594,0.09370706802300788
7.61862850189209,4.151963428199063,0.8086837967759777,2.40510587409804,1.0729261333133693,0.6659995801164958,0.09439873760878821,-0.39838536683705267,-0.033185442344768314,-0.05006593567873659,0.3088827672716352,0.19492658534996377
7.638768196105957,4.1733429869934335,0.8219941272189722,2.4069838132902364,1.0650654216644933,0.6648833642064602,0.0933940797756624,-0.38768272249494573,-0.07821567492497782,-0.050396490004932494,0.307980074740716,-0.04513462654596179
7.658747434616089,4.194446901755127,0.8355445643815803,2.4088366394828324,1.0544653018386672,0.669649481938479,0.09226070947384726,-0.37415387488691226,-0.12760144719472546,-0.050695515709401145,0.3123821289820943,0.22010271206891474
7.678746461868286,4.215462275113184,0.8489088173425641,2.410671695604664,1.0471168750026763,0.6666162535657248,0.09124397055759369,-0.36070156405246734,-0.17546990569354148,-0.05097516489025011,0.3103783713774262,-0.10018788023340441
7.6987268924713135,4.236226779821928,0.8624859744464137,2.4124825410021176,1.0373983360263384,0.6697278965047018,0.09012956255004267,-0.34597391127438615,-0.22331151305524347,-0.05122548788544525,0.3144108422118985,0.20162354172361674
7.718667507171631,4.2671272527699005,0.8826634505711384,2.415161664974483,1.0252649567355336,0.6678932821290919,0.08854350976747757,-0.3319498386790691,-0.2755588217266307,-0.051447873789722966,0.3141697374389607,-0.012055238646890842
7.738749980926514,4.287567094641802,0.8959628076724685,2.416922231675931,1.0187658281393048,0.6618740197905365,0.08751247943122181,-0.31797054547674564,-0.32608160919880097,-0.05165216118597345,0.3127434372038769,-0.07131501175419164
7.758720397949219,4.297681102362864,0.9027350914362398,2.4177940654051486,1.0140661787682805,0.6630243001973751,0.08697649964664259,-0.3046975229217551,-0.3746114930701857,-0.05183713420850022,0.3148860366363455,0.10712997162343196
7.778727769851685,4.317902369866125,0.9159175030328512,2.419523216512558,1.0081047188144774,0.6550606322443058,0.08593805261116319,-0.2914533617670366,-0.421479973234498,-0.0520046826216846,0.31150080324523577,-0.16926166955548716
7.798708438873291,4.337912491116092,0.929242299047611,2.4212327044323683,1.000045977882381,0.6539364316433457,0.08493127784190052,-0.28123443755004907,-0.46482364092579026,-0.05215156852636091,0.31408420240836454,0.12916995815643872
7.818591356277466,4.357827710131708,0.9423343786419139,2.422922119045746,0.9935333973399616,0.6478314565810852,0.08392876937533504,-0.27031413593900566,-0.5080274699188206,-0.052281259573133704,0.31164658669042344,-0.12188078589705498
7.8387181758880615,4.377645044840324,0.9551866013200103,2.4245902303635662,0.9882365784111573,0.6372520763286966,0.0828819852286311,-0.2593626946114651,-0.5496482465272559,-0.052394416381145406,0.3089163842009093,-0.13651012447570832
7.858710765838623,4.397294618906529,0.9680792922349598,2.4262428795345565,0.9815924566723045,0.6322635241837898,0.08197687719106814,-0.2496637273174312,-0.5899540711513857,-0.052493878848387104,0.30920666391088947,0.014513985499009507
7.878694295883179,4.416877184325664,0.9806039626248033,2.4278719124784445,0.9766965765911865,0.6200743385964167,0.08092613934031745,-0.23991634974733472,-0.6287072376863895,-0.05257723944240575,0.3046756846674876,-0.22654896217009224
7.8987367153167725,4.426603214995426,0.9869125582667613,2.4286837900327543,0.9735788477949479,0.6173769379715696,0.08055213829369941,-0.2304213595155495,-0.6649910357993591,-0.05265488857171949,0.3059108452317125,0.0617580282112451
7.918622016906738,4.455681029547927,1.0052716629459313,2.431082971886478,0.9660141065394315,0.600987821071716,0.07915404562146051,-0.22242544971056033,-0.6992993439888787,-0.05271656050351037,0.2994294192565361,-0.32407129875882124
7.938683748245239,4.474957363281391,1.0171493440798345,2.4326555061585515,0.9616461611753558,0.5866707100530623,0.07809922813314711,-0.21435716774787866,-0.7321743125826861,-0.05276259968198227,0.29623837247989115,-0.1595523388322473
7.958695650100708,4.49412677577273,1.0288839159061767,2.434217464690035,0.9569015034265733,0.5753888645566723,0.07730776756674015,-0.21121422334693932,-0.7603190062101228,-0.05280182722298044,0.2932806031766573,-0.14788846516169407
7.9792256355285645,4.52273720472612,1.0458697628851914,2.4365203068016035,0.9505431960429882,0.5542035559802754,0.07593465551295248,-0.21221105215648908,-0.7839729143192995,-0.052825590682561735,0.2856342342627358,-0.38231844569607265
7.998660564422607,4.541705577474814,1.056795519424874,2.4380284339705165,0.9462919200425463,0.5382970403699427,0.07487803280806155,-0.21285876856125602,-0.8064904373663917,-0.05283416512101494,0.28171010940603747,-0.1962062428349176
8.018627882003784,4.560616314344116,1.0674349931041702,2.4395258791714425,0.9427683535245653,0.5227601772204715,0.07407923806361898,-0.21588301917178762,-0.8254439224117316,-0.05283473041916926,0.2763248039510584,-0.26926527274895307
8.038733959197998,4.579428324754358,1.0777238944628424,2.4409968976930387,0.9384240412751046,0.5060701187473692,0.07302266172501526,-0.2184769852105324,-0.8433961049978529,-0.052820445057095954,0.2707731710105219,-0.27758164702682553
8.05867052078247,4.588838562170214,1.0827317919053772,2.4417305352930474,0.9372999492779996,0.4971079395691141,0.07266578986061017,-0.2207655554915377,-0.8618191898444125,-0.052802631556856175,0.2687172861777385,-0.10279424163917028
8.079256772994995,4.607540275479283,1.0925004101713705,2.443173292480194,0.9328650842171702,0.4796959051455118,0.07161003671882386,-0.222654871734996,-0.8792139766920976,-0.05277027545073376,0.26141659764433633,-0.36503442667010777
8.098699808120728,4.615039986482458,1.0962895334413705,2.4437491783181096,0.9323632647299215,0.4718863719828222,0.07132439460227226,-0.22503520341010483,-0.8937022776319581,-0.05273461194344504,0.26010633668744454,-0.06551304784458978
8.118631362915039,4.6522362470707925,1.1144050184594767,2.4465653357212607,0.9254064382344865,0.43486912718455506,0.06934589782370033,-0.2246843184517956,-0.8975222287526373,-0.05266548849455407,0.24173524088522136,-0.918554790111159
8.138746976852417,4.6706994775984265,1.1229226624999202,2.4479417258642373,0.9209187975718028,0.4168839148275197,0.06829339186161484,-0.22402948465514094,-0.9009309316447385,-0.052582875385121956,0.23926624146010989,-0.12344997125557367
8.158621072769165,4.679947956710618,1.1269815526202054,2.4486214170854486,0.920123092844391,0.40592265925889837,0.06773916121270492,-0.22268374653743203,-0.9057499844575668,-0.0524856255825434,0.23413544438074751,-0.2565398539681185
8.178700923919678,4.698305983799084,1.1349185580023016,2.4499657103088355,0.9156849176304204,0.38776337674850486,0.06669052793494411,-0.22109332404713097,-0.91010075164072,-0.05237558597730896,0.2261245412664472,-0.40054515571501526
8.198762893676758,4.716642363381003,1.1423565120801813,2.451285845221275,0.9129031660463478,0.3659998303162892,0.06556380653889132,-0.22201856859862212,-0.9228252713427706,-0.05223655441824236,0.21650381653092765,-0.48103623677597795
8.218636989593506,4.734879099341076,1.1494345297298147,2.45258522761684,0.9093004325345504,0.3455141736813823,0.06447155406837068,-0.2131424338028546,-0.9380560477723671,-0.052077141927647105,0.20804430784740235,-0.4229754341762648
8.238627672195435,4.7530230737249175,1.1561562364094258,2.4538642544567644,0.905126757345608,0.32660903897416876,0.06343169851672661,-0.2042170135252011,-0.9522928587999177,-0.051906566945950305,0.1996415900473334,-0.420135890003448
8.258686542510986,4.771131268743157,1.1623636822842196,2.455118573519882,0.9021847476710149,0.30418104435042187,0.06229943072629449,-0.19860555151545684,-0.9633094511769199,-0.05170779806029652,0.18842646744234814,-0.5607561302492625
8.278674602508545,4.789135624416593,1.1682539504023197,2.456354234331675,0.8982700387110785,0.2848119440745313,0.06126734665039681,-0.19283988886524622,-0.9734566634440595,-0.051498941500682,0.1799346038936238,-0.4245931774362166
8.29866099357605,4.798123153323477,1.1709813600855172,2.456962371992533,0.8967722102841621,0.27291984432339117,0.06069782566351346,-0.18936374991096375,-0.9863134678583003,-0.05127894796195892,0.1747214184044612,-0.2606592744581304
8.318645715713501,4.8249455953150475,1.1786671868862957,2.458758165574637,0.8911619819641373,0.24165344914706793,0.05910249067699047,-0.19615079292044463,-0.9896252129494552,-0.05102681834756761,0.15535380649664265,-0.9683805953909275
8.338807106018066,4.842729181456425,1.1833021416248857,2.4599300272632503,0.8871759470648249,0.22183308674128097,0.05808454722306187,-0.20235645681219502,-0.9923067566770273,-0.0507661091169428,0.14726040888312353,-0.40466988067595633
8.358688354492188,4.8604536597453265,1.1874429105319286,2.4610758579706418,0.8836799670580097,0.1995086083348379,0.056914034027715055,-0.20843138657031707,-0.9931247643891918,-0.05047625494158256,0.13347051436591162,-0.6894947258605955
8.37869644165039,4.8780851965401615,1.191234430712023,2.462204063097367,0.8794553741478296,0.17964251251343832,0.05590746966730518,-0.2139329993890232,-0.9933940499023923,-0.050178950415305186,0.12248096427528621,-0.5494775045312705
8.398662567138672,4.895681376004397,1.1945146147615366,2.4633044643620865,0.8764353056532613,0.1568851015758539,0.05471330142126885,-0.21744264252813367,-0.9948619571534988,-0.04985163317487745,0.10777842137174565,-0.735127145177028
8.418628931045532,4.913189383344909,1.1974082298420263,2.464385959003717,0.8728693740399401,0.13544265333119715,0.05362532481404345,-0.21436669469081926,-1.0003048158993058,-0.049507080827531115,0.0944382342468626,-0.6670093562441526
8.438738822937012,4.930604116284831,1.1999166955742986,2.465448587341522,0.8686150867894487,0.11538820464782926,0.05263867659028679,-0.21101671482009657,-1.0050195628333967,-0.04915679560571121,0.0810516202716749,-0.669330698759385
8.45868968963623,4.947981463441488,1.2019159886052342,2.4664838972541534,0.865494222916554,0.09258955051945197,0.051470605357940534,-0.2130616548870365,-1.0128882112018518,-0.04877913853124258,0.06451879050955434,-0.826641488106028
8.479327917098999,4.973867270981659,1.2041844282894056,2.468001704819742,0.8595885077867998,0.06063097902072426,0.04988594283311978,-0.21112175294041108,-1.0218054166325308,-0.04836938581577625,0.039494014938355804,-1.2512387785599266
8.49869179725647,4.99101696176299,1.2051921375278147,2.4689897772993112,0.8553880777779181,0.04011322975010342,0.0489226831382973,-0.20886960260619628,-1.0298201475715947,-0.04795598300472453,0.024647629785995218,-0.7423192576180293
8.5186288356781,5.007248946664827,1.2057114667314628,2.4699006928790976,0.8520890633542126,0.019111153427170995,0.047752079894429464,-0.1787689730589372,-1.0354180791852141,-0.04751479634578285,0.006599099821628318,-0.902426498218345
8.538763284683228,5.0242569463209215,1.2058862810495485,2.470846261057513,0.8488089392775912,-0.0016451837158053572,0.04680621702247076,-0.1493577490371758,-1.0400569380255782,-0.04707107507549392,-0.012019376733312548,-0.9309238277470433
8.558736085891724,5.03357199677619,1.2057767285026706,2.4713519938527337,0.8467729517425922,-0.013879973764573362,0.04611774754615848,-0.14472711566824425,-1.0391938600505397,-0.046618974620943915,-0.022813931282875455,-0.5397277274781453
8.579511880874634,5.058856401259425,1.2048673517430204,2.472708955278669,0.8408213970251558,-0.04568117932926062,0.04456227827602198,-0.15523447047950395,-1.025391358331817,-0.04613538130670497,-0.05422985781877321,-1.5707963267948966
8.59867000579834,5.075641117220255,1.2037495739675483,2.473591006056191,0.8376175306469573,-0.06605033016412193,0.04364441467229299,-0.16503514525584131,-1.0115109908555526,-0.045650823522261595,-0.07856491754722583,-1.2167529864226312
8.618616580963135,5.0839739857567,1.2030010620075056,2.474013892344798,0.8348621212465347,-0.07707260832845035,0.042865031119564106,-0.18513974704262215,-0.9877971916733134,-0.045152020377465324,-0.0919451252594059,-0.6690103856090035
8.638739109039307,5.100632912132865,1.2012636174754214,2.474862195828573,0.830966975455622,-0.09659372150208123,0.04196698070460861,-0.20420223982206478,-0.9643601595215363,-0.04465298726062725,-0.11445276223440981,-1.1253818487501954
8.658727884292603,5.11723998529321,1.199021580620065,2.4756745155991013,0.827679799072529,-0.1187718150282185,0.040637964562422045,-0.21698517338269097,-0.9445255448685784,-0.04411837708238272,-0.13773882343967347,-1.1643030602631832
8.678859233856201,5.133749371997268,1.1964585525915659,2.476478486799296,0.8232189203362514,-0.13746546744791166,0.03976093371892101,-0.22897064319047392,-0.9248694291783397,-0.04358489914336665,-0.15561340622418385,-0.8937291392255187
8.698718309402466,5.1420277019961915,1.1949364611823725,2.4768631325852413,0.8224443416382498,-0.14943689911517388,0.03902246470589346,-0.24638438851818817,-0.9051553187137192,-0.043041748173934975,-0.16555999718482184,-0.49732954803189955
8.71864366531372,5.166660834163762,1.1899320493622472,2.4780045354191667,0.8167161628549867,-0.1795865991597011,0.03745345179288993,-0.28959732342144956,-0.875464159810816,-0.04246413091948121,-0.19518164928086623,-1.4810826048022196
8.738682270050049,5.182934452867347,1.186167180332174,2.478745149991686,0.8105080383977418,-0.19680290665016917,0.036609921177080756,-0.3308984471599526,-0.8462449393247903,-0.04188941579768347,-0.20723111287572804,-0.6024731797430904
8.758782863616943,5.199213161778399,1.1818961596952349,2.4794495262939598,0.8069899503051724,-0.2176028931048526,0.03549925988753301,-0.3830315263972286,-0.8091848890979559,-0.016001418992561505,-0.2246741483571033,-0.8721517740687634
8.778765201568604,5.215272983192137,1.1773847021121937,2.4801579872987642,0.7988253527167005,-0.23342155677733098,0.03542982073677719,-0.4330834468094149,-0.7727922738233108,0.008892811158837416,-0.23677461537814093,-0.605023351051881
8.798661470413208,5.223377415477108,1.1748876768221124,2.4804900201544933,0.7980679075055318,-0.24442103363194465,0.03501273879717346,-0.48232028830126594,-0.7390370410818372,0.029500793986489048,-0.24368242839793242,-0.34539065098957433
8.818681478500366,5.255224458794924,1.1642767924518092,2.4818378087442334,0.7860824438439641,-0.2797243614860458,0.03448737479547041,-0.5297617987053783,-0.7079730242057911,0.04715828604518291,-0.27509835493383017,-1.5707963267948966
8.838672399520874,5.2708370970108485,1.1585427552438947,2.4825381286252104,0.7750301918476553,-0.29357756457154216,0.03560104618242994,-0.5751179989231922,-0.6774345369008492,0.06408828664487151,-0.2809978305245573,-0.29497377953635606
8.858628988265991,5.2787384745064445,1.1554427038263742,2.4828595323778098,0.7741269713798583,-0.3036340321024235,0.03529019027176929,-0.6040975911630262,-0.6296376514710093,0.07750926170775098,-0.28745257567488514,-0.32273725751639226
8.87866735458374,5.294098332466908,1.1492472256579254,2.4835817040622032,0.76176688626225,-0.3157582204483159,0.03696980400434879,-0.6316794013269972,-0.5829681825718207,0.09035711799009775,-0.2988115082317626,-0.5679466278438738
8.898690700531006,5.301873151855207,1.145913089936464,2.4839194558875213,0.760515939409822,-0.32542594533350294,0.036995313801425664,-0.6581274598955502,-0.5411140141168425,0.10480119172499569,-0.3032173060182668,-0.2202898893252092
8.91863465309143,5.32455727702461,1.135727147571295,2.485042443069529,0.745220185812232,-0.3464515394666987,0.03929806109005835,-0.677861921919608,-0.5029398932030927,0.11817198082575743,-0.3228509124215666,-0.9816803201649904
8.938786029815674,5.339324851194653,1.1287000286072952,2.4858528993714093,0.731475340602717,-0.35613611498329634,0.04179009480996987,-0.6964293500989999,-0.46566716271852543,0.1309298102444208,-0.3283305668813501,-0.2739827229891745
8.958692073822021,5.346716910017383,1.1249595963811514,2.4862527707836106,0.7272179234324807,-0.3647728812811279,0.042338369186920154,-0.7452573122448688,-0.4157682971682413,0.12186911699374689,-0.33417168956777044,-0.29205613432101707
8.97862434387207,5.3753742502966215,1.109779871350923,2.488026553985584,0.7013728624573691,-0.3872973388776225,0.04683130862102207,-0.7561034282142785,-0.3715777331126304,0.11294035249971687,-0.3579277639160221,-1.1878037174125833
8.998652696609497,5.389249806821561,1.1019625003680857,2.4889851846322673,0.6861495002081113,-0.3942960989024295,0.04900276935290089,-0.7660905626348502,-0.32847940052895586,0.10424430354845943,-0.3601270062650439,-0.10996211745109008
9.018610954284668,5.402925032744099,1.0938206923893918,2.4899980810321938,0.6734569106621464,-0.4052991005117826,0.05133871765252445,-0.7506372428501089,-0.2943766535401955,0.0958866053235431,-0.37187243924423186,-0.5872716489593977
9.038736581802368,5.416245075191065,1.0856580685250279,2.4910434866556246,0.6585989415233642,-0.4108522759598614,0.05317472655595466,-0.7351550313073466,-0.2610735393016255,0.0877511258168801,-0.37735683194980574,-0.2742196352786941
9.058712482452393,5.42280721986696,1.0814306221972552,2.4915981881181746,0.6516958453326401,-0.4162376732556034,0.05452304520052744,-0.7093423006969859,-0.2419454341720134,0.08000092099266398,-0.38161569984893173,-0.21294339495629977
9.078593730926514,5.441970003479493,1.0687454677781647,2.493296692819378,0.6285860045743425,-0.4258291645281812,0.05762113665764055,-0.6762690119773739,-0.22915812323325194,0.07240485513560593,-0.3962883950265432,-0.7336347588805747
9.098695278167725,5.454408644116761,1.0601839030216695,2.4944631005677396,0.6153862700045029,-0.4302848426049411,0.05899501349543581,-0.6438056697383996,-0.2164175902071633,0.06501741294625465,-0.3992607216909829,-0.14861633322198475
9.118650197982788,5.46040747650915,1.0558363771456643,2.495077875377905,0.6056471394685781,-0.4333695194026631,0.06019390850511351,-0.6088906697936628,-0.22449769844005393,0.05798302623789191,-0.40438303935464326,-0.2561158831830168
9.138718605041504,5.472400936448779,1.0471235853178675,2.4962928910740736,0.5938130815022931,-0.43793415014074716,0.06128487083106262,-0.5746224772826939,-0.2318438952654303,0.05114590646574434,-0.4107288739216157,-0.3172917283486232
9.158679246902466,5.483873732954833,1.0383509023772666,2.4975667087841633,0.5756066511404614,-0.4417038183761877,0.0631927669850592,-0.5011378317588935,-0.25592483480318773,0.044565795758244285,-0.41910846034110527,-0.41897932097447743
9.178646802902222,5.495290443006872,1.0294641044925317,2.498839048073669,0.5663030197359964,-0.4470516583582944,0.06401985828799038,-0.4295378093671025,-0.2786316074834498,0.03817465812427815,-0.42325267725151194,-0.20721084552033364
9.198675870895386,5.499599090973232,1.0259624314922051,2.4993725012899763,0.5573367502952337,-0.44693387594732165,0.064849604342381,-0.3588133253929298,-0.3012501337752862,0.0321084278272068,-0.4259119853114002,-0.13296540299441162
9.218624591827393,5.515823327560904,1.012579789977846,2.501355573541223,0.5375650752379311,-0.451446542410973,0.06641290958975846,-0.2855726749077811,-0.3188992706863694,0.026196463975177397,-0.43744839411628966,-0.5768204402444743
9.23862624168396,5.526522300190128,1.0034859605460964,2.502688685720279,0.5325698623706702,-0.4579913795563734,0.06687918922504903,-0.21426993695817878,-0.33539315987690355,0.020460704212802473,-0.4387629836606366,-0.06572947721734668
9.258723020553589,5.536592698508186,0.9945398159992248,2.5040540253491246,0.5152678688253846,-0.4577945977537801,0.06781312489040302,-0.14648464957036125,-0.35549087276983893,0.014981430173928202,-0.44721622119086124,-0.4226618765112322
9.27861475944519,5.55161656413418,0.980838367475854,2.5061065484554077,0.5009333684917504,-0.4631335631324847,0.06853724510136665,-0.08263239001070645,-0.37522161230857487,0.009676632230128638,-0.45414096070791876,-0.34623697585287605
9.29869270324707,5.561622876509354,0.9714994004546003,2.50747888327995,0.4999050290198903,-0.4708246527918842,0.06867910378589816,-0.02048410157384238,-0.3936760316081729,0.00453653125351197,-0.4559389362753845,-0.08989877837328741
9.318619728088379,5.571124994516221,0.9622867632729162,2.508866233047971,0.4878048556740601,-0.47171635918609617,0.06905406631718454,0.039371991344908576,-0.4027179733750726,-0.00034441087433066583,-0.4620339012936454,-0.304748250913045
9.33876085281372,5.580892875025696,0.9527713333587279,2.5102469279068393,0.489177296087463,-0.47985386686368614,0.06899966966433448,0.09760251403979303,-0.4108885611443424,-0.005069412041035791,-0.46290368682102656,-0.04348927636905753
9.358664274215698,5.585503977095826,0.948127124562323,2.5109466972871766,0.4825759498227942,-0.47910197784945874,0.06919654180846146,0.15210070611044366,-0.4212964319695131,-0.009524949562916224,-0.46546188605129224,-0.12790996151328393
9.378645420074463,5.595189474631051,0.9384601786269632,2.5123284334449854,0.48615048372573033,-0.4876241967013661,0.06896271122601862,0.2051049683624679,-0.43077094705161917,-0.013833801576008215,-0.46658571670579585,-0.056191532725180515
9.398693561553955,5.599776715816116,0.9337221440924852,2.5130308761850033,0.48058983259561233,-0.48752452737713053,0.06917237374116578,0.25182785395969803,-0.443933415956575,-0.01789738610944668,-0.4690239486170005,-0.12191159556023123
9.418659448623657,5.614033010616931,0.9190454096369094,2.515114220976694,0.4807950897755676,-0.49668480672728865,0.06906510507288585,0.2981897453752336,-0.45077183937288406,-0.021808739648562368,-0.47212290825956504,-0.15494798212822847
9.438944101333618,5.623711577143887,0.9090211441077682,2.5164909073493567,0.4872118411083183,-0.5057618216589106,0.0685909453522836,0.3432734146678207,-0.45679467080147573,-0.025584818319264537,-0.4715928049693785,0.026505164509327273
9.458771228790283,5.633205380581652,0.8990034509902569,2.517881735696984,0.48659414521155203,-0.5103088551376884,0.06865920521876347,0.38259188550067197,-0.4617227054757063,-0.02915799074904241,-0.47404822747894304,-0.1227711254782271
9.478636741638184,5.647818590470227,0.8835832809121985,2.5199452976189893,0.49404623753346844,-0.521466602370271,0.06823747700566313,0.4234008336780317,-0.4644867159096107,-0.032583997064356406,-0.4738045509385951,0.012183827017397952
9.498652935028076,5.6577868578622885,0.8730609006265845,2.5213033082291383,0.5029126621258987,-0.5307784191872345,0.06755258129036679,0.46304916469463153,-0.466584774946983,-0.035884837516852244,-0.47341428043252387,0.01951352530356054
9.51862907409668,5.662741824147176,0.8678017900628443,2.5219923605847527,0.5051971317166092,-0.5333829382710885,0.06760189486174577,0.5015397846255238,-0.4597850102302864,-0.03898527881584612,-0.4732595308258576,0.007737480333314117
9.538735628128052,5.672948584674416,0.8570426423835816,2.5233364006348316,0.5156034879706289,-0.5425081814570597,0.06679216833145706,0.538910062691878,-0.45269063676458177,-0.04196784685386124,-0.4718845023468745,0.06875142394915379
9.558752536773682,5.683239015279958,0.8461639833006908,2.5246894441250176,0.5235581330881192,-0.5500720247787082,0.06656555240946754,0.573751067079307,-0.44319540643790245,-0.044771658743376345,-0.4714218994743442,0.02313014362651522
9.578596115112305,5.699154388568715,0.8294661258930122,2.526681477466304,0.539721908359412,-0.5632105178474874,0.06563013898629086,0.6090117234246814,-0.4306422150062318,-0.04743367489901886,-0.468792275518104,0.13148119781201117
9.598671436309814,5.710072923931473,0.8181166296466554,2.5279844214651828,0.5522454449986901,-0.5716968860667736,0.06465574835847374,0.6431570471748849,-0.41797605358588796,-0.049987459972882134,-0.46725803131001653,0.0767122104043727
9.618587493896484,5.721232042918592,0.8065659373053721,2.5292861653313476,0.5650958408875568,-0.5807875536340915,0.06409465936192252,0.6751241361441551,-0.3943425694231072,-0.05236357136809372,-0.4652402811213707,0.1008875094322903
9.638679265975952,5.73267106284278,0.7948728778445393,2.530557432488447,0.5789091898283125,-0.5884406426742734,0.06302447482919449,0.7060358174090539,-0.3710176074455144,-0.05463804803988733,-0.46252722453059514,0.13565282953877933
9.658695697784424,5.738509687800537,0.7889192570893592,2.5311948846406334,0.5866580308573229,-0.5933718727579113,0.06273761842824371,0.7313421203646655,-0.33912407988397475,-0.05674682554076508,-0.4619299700331547,0.029862724872020685
9.678674221038818,5.756456041422625,0.7708713609678122,2.533060252864155,0.6093056016012305,-0.6059630604876431,0.06126281118636277,0.748637168877336,-0.3001582982844878,-0.058711924381249635,-0.45647756427279873,0.2726202880177997
9.698638677597046,5.768793001684679,0.7586946192245959,2.5342736402973793,0.6244459309860906,-0.6115843298171088,0.060069687997742774,0.7652892041636431,-0.2621229402178105,-0.0605851853388882,-0.4540791353315283,0.11992144706352015
9.718626737594604,5.775129530293455,0.7524534460659915,2.5348760853020424,0.6337521536443135,-0.6170534604440098,0.05957754470439322,0.7698783598463386,-0.2154128410333329,-0.062301590484587346,-0.4530729966059228,0.050306936280275494
9.738674402236938,5.787958843849832,0.7400723465454935,2.5360550657466505,0.6491937581545483,-0.620904901997113,0.05831506426958724,0.7742452485883942,-0.16993574435975523,-0.06393225493057644,-0.4478927701568627,0.2590113224530066
9.758641481399536,5.801221680760473,0.7273574060356898,2.5372121042860925,0.6679698544705268,-0.6306237816130524,0.057097750944992434,0.7784452883262611,-0.12473720751714992,-0.06539194301379378,-0.44582184888240084,0.10354606372309227
9.778741121292114,5.821729440797078,0.7081865379805745,2.538893814015713,0.6947851249844896,-0.6395828184933463,0.0550676441163598,0.782546626769603,-0.0791040251558742,-0.06670085551657368,-0.43853916221977896,0.3641343331310942
9.798646926879883,5.835781913549661,0.6953820386573766,2.5399817432362846,0.7104749897781869,-0.6407192875537023,0.053721165783035235,0.7863985277665577,-0.03475591430422497,-0.06793451944958599,-0.43532076746276793,0.16091973785055114
9.81862998008728,5.84306163851948,0.6887925601123498,2.5405107319761577,0.7222579642692623,-0.64576981932367,0.0528894686804369,0.7890615804292966,0.01465508167547341,-0.06902480147720312,-0.4338599034892274,0.07304319867702525
9.838653564453125,5.8576647778988855,0.6758833140110921,2.5415546471879553,0.7380642009794334,-0.6449950663917429,0.05149865005540415,0.7915298110112297,0.06257267808014146,-0.07004555026526793,-0.4272526395577012,0.33036319657631097
9.858755826950073,5.872795043539241,0.6626785941629995,2.5425626438580897,0.7591689292163922,-0.6512759517038677,0.04988962099151292,0.7920985977164401,0.11073886563603165,-0.07090163740456382,-0.42424418995411983,0.15042248017906878
9.87967038154602,5.896064412527515,0.6429874822179225,2.544021770807114,0.7868581994025792,-0.6533330426497691,0.04759502486405425,0.7906236827861841,0.15534530534664034,-0.07161461269125545,-0.4151760761268797,0.4534056913620077
9.89863920211792,5.911959599206184,0.6299547933226812,2.5449593038142404,0.8026553046023538,-0.6497918758393401,0.04615609648585018,0.7890745388592252,0.19853687865005645,-0.07226843528944905,-0.41121361440445847,0.19812308612106033
9.91862177848816,5.920163392584463,0.6232958031522762,2.545411047387596,0.8144597114258461,-0.6522841963883457,0.04524967690207163,0.7864163029045175,0.23850711135954406,-0.07280625129735398,-0.40939561056203644,0.09090019212110168
9.93886423110962,5.93660969102832,0.6103004204986413,2.5463014465418916,0.8301611503850325,-0.6471251501526307,0.043788626842716956,0.7837215369504213,0.27718300056580314,-0.07328976966165338,-0.40182620442667494,0.378470306768075
9.958723783493042,5.953579866953927,0.5971454054717742,2.5471541064013707,0.8510541951120315,-0.6478363189504328,0.04211069738762311,0.7805798797470879,0.31845885908606064,-0.07363156115246923,-0.39751608940180994,0.2155057512432501
9.978599548339844,5.979595001861846,0.5777077322196328,2.5483795130688103,0.8782133227206098,-0.6420607296870199,0.03976592388066363,0.7782450922480961,0.35741268262222364,-0.07384643374867178,-0.3868151654666714,0.5350461967569276
9.998621940612793,5.9973147586647375,0.5649405310634273,2.5491600501851615,0.8937543741010133,-0.6345339342737497,0.038287221222330234,0.7758500635407571,0.3950484308223502,-0.07401640459460496,-0.38227876096873503,0.22682022489681763
10.018633365631104,6.006411993270983,0.5585088298746919,2.549535016518806,0.9049232537899112,-0.63321223638017,0.03742645628892908,0.7739525437387539,0.4337227311287984,-0.07410022400198428,-0.3796248378595579,0.1326961554588557
10.038779735565186,6.024665119471847,0.5459338405367935,2.5502687220672304,0.9203828493215342,-0.6241622721331366,0.03594395589045827,0.7719974601983985,0.4710505717046714,-0.07414303343558094,-0.371272607599058,0.4176115130249958
10.058788299560547,6.043390682530613,0.5333806253640779,2.5509687846020506,0.9398398893265001,-0.618413555371993,0.03436722836963813,0.7706400794624211,0.5143123885209705,-0.07407264921965291,-0.36546819148311327,0.29022080579723664
10.079465389251709,6.072023139389489,0.5149703549607779,2.5519653765533996,0.9655242332115032,-0.6051744336996446,0.032118888035810485,0.7718070692052454,0.5528628000918997,-0.0738956344626586,-0.3533096093984347,0.6079291042339285
10.098704814910889,6.091488054197892,0.5029799371874866,2.552592988641217,0.9809705339614713,-0.593743613633643,0.030643020744868417,0.7727930038051637,0.5899820775162372,-0.07368564381251887,-0.34780505175535614,0.2752278821539278
10.118591785430908,6.111372565124589,0.4911312997036063,2.553190894860138,0.9991225492709245,-0.5838726875078653,0.029169910950599516,0.7729892775164523,0.6269128297006302,-0.07338152928563034,-0.33968406725731226,0.4060492249021941
10.138757467269897,6.131509618635294,0.47958161894734097,2.5537596384958574,1.0145828960030163,-0.570977052616385,0.027705562657700356,0.7730175732854839,0.6624137614729877,-0.07304852664835389,-0.3320028856733397,0.3840590791986287
10.158767223358154,6.14174897103885,0.4738636273361265,2.554034580093833,1.02390871995462,-0.56518275525247,0.027024964661552835,0.7796471954345978,0.6963441725314101,-0.07266898179054504,-0.3293105332448003,0.13461762142696898
10.178594589233398,6.172855797952318,0.45717691604359895,2.554815019619772,1.0484118576585786,-0.5452765799315523,0.02491829451242465,0.7851726685074488,0.7245457053048091,-0.07220098659670347,-0.3137598258018879,0.7775353721456213
10.19868278503418,6.193981418853953,0.44641811406874543,2.555298977685771,1.0641673762328245,-0.5305135804271738,0.023479150096796977,0.7903158645751426,0.7515570826433372,-0.07170959101439761,-0.3077802625262711,0.29897816378083863
10.218638181686401,6.204684692162139,0.44114002159369353,2.555531933884846,1.0726926677675748,-0.5230152030720542,0.022816933226015756,0.7926695962484464,0.7770579802359232,-0.07118167884209797,-0.3038628138332031,0.1958724346533991
10.238792896270752,6.226297222057997,0.430836772948935,2.5559740724687683,1.088567216309264,-0.5072284013631952,0.02139875542020475,0.7947380035122483,0.8014362202583561,-0.07063260944623889,-0.29327804056033324,0.5292386636434943
10.258732557296753,6.2482349192244975,0.4208453248730554,2.556391947515367,1.104603588824449,-0.49113940363337005,0.020092253954399623,0.7933038616645127,0.821019838968679,-0.07001608955203964,-0.28472071309507596,0.42786637326286403
10.278621196746826,6.2817299135172515,0.4064988260905787,2.5569657643106916,1.128373681984626,-0.4658030343500772,0.018071116975723073,0.7898232331342544,0.8370520144246575,-0.0693222945261095,-0.2689777718686277,0.787147061322413
10.29870319366455,6.3044551155958555,0.39735120277227187,2.557313369211394,1.144134646634897,-0.4489086417238945,0.01669173672711492,0.7862594815158704,0.8522489177539839,-0.06861321037610071,-0.26168428790392717,0.36467419823502656
10.31855320930481,6.327499107493634,0.38861513325721714,2.55763436008724,1.159952382981602,-0.4298986902768529,0.015335704603651901,0.7832070464598732,0.8643103877019297,-0.06784102021239626,-0.2505473475090172,0.5568470197454989
10.33865761756897,6.350854587637206,0.38019078998733113,2.557927558069742,1.1755850953459768,-0.4124978035577596,0.013986708482054643,0.780046263968437,0.8756604867740031,-0.06705657458401723,-0.24146586654503466,0.4540740481991268
10.358680009841919,6.362654881504501,0.37617707200746475,2.5580634131613342,1.1835057711913899,-0.4016485434814841,0.01330383489159688,0.776219259661976,0.8903252396592799,-0.06625081936654365,-0.23670537072247644,0.23802479112791097
10.378770589828491,6.398515688351037,0.36460008922228254,2.558431328631579,1.2069453508803685,-0.3727672444063308,0.011282834942080083,0.7734935736103252,0.9026226912596789,-0.065371104522658,-0.21807654833742696,0.9314411192524741
10.39867377281189,6.422809103370322,0.3573260505075332,2.558643970153631,1.222386466676016,-0.3545981773139707,0.009984275961008931,0.7705883084160859,0.914157782582594,-0.06448349934656973,-0.21044151072616346,0.3817518805631748
10.418586254119873,6.435072731514218,0.3539046547701877,2.5587371633298344,1.2300331084266005,-0.34335174218367026,0.009248303723367275,0.760325392825223,0.8936909812185979,-0.06357710862657696,-0.20489835239735799,0.27715791644027377
10.43878722190857,6.45982478063758,0.34721501830327633,2.5589094747260708,1.2451379984017108,-0.3256784874780327,0.007985878259586198,0.7501837225207166,0.8737159978106562,-0.06266440464822816,-0.19403292780425208,0.5432712296552955
10.458655834197998,6.484887023374134,0.3410299544581815,2.5590509512440516,1.2603194641519075,-0.30435133371575085,0.006587996305189222,0.738601434703273,0.8504920636535405,-0.06169475881974797,-0.1823713462874066,0.5830790758422744
10.478672504425049,6.523046027171765,0.3324392156431849,2.559213288605982,1.2829096672827747,-0.27413765429077835,0.0045241575595517895,0.7304730699135948,0.8684107185072714,-0.060650443414117614,-0.16473318628351086,0.8819080001947865
10.498661041259766,6.548849773246267,0.3271312917573145,2.5592917113281044,1.29743784635961,-0.25659816792958445,0.0033215982016692003,0.7223449402680978,0.8853808289181029,-0.059605381434824176,-0.15652210120369103,0.4105542539909912
10.51863145828247,6.561877476548474,0.3247615032194947,2.559311303711969,1.3050568504761264,-0.24338828346662184,0.0024255710957657942,0.711644676706484,0.894989326201688,-0.05854051195853795,-0.14954938401099627,0.3486358596347383
10.538766145706177,6.588120233472455,0.3200733435277134,2.5593481779839045,1.319183462940234,-0.2253978170813548,0.001265403005167654,0.7010309784591798,0.9039500562788718,-0.05747644212344158,-0.13873824485082098,0.5405569580087644
10.558664083480835,6.61467899482742,0.31589203481730954,2.5593483656101896,1.3339209191517258,-0.20413548774841367,-0.00019949905783789168,0.6818398557075406,0.8659181705815883,-0.056357881295818,-0.12655050639917365,0.6093869225823667
10.578630924224854,6.655031383787481,0.31024868936814703,2.5593111634347956,1.3550621163842431,-0.1755847647456472,-0.002047740372295025,0.6667482204361473,0.8527836695379767,-0.05517967835928568,-0.10950345573354392,0.8523525332814863
10.598701238632202,6.682264984521016,0.3069066849129668,2.5592592509473366,1.3682486415021258,-0.1586588139506943,-0.003139600480373134,0.6519535298525134,0.839843687600387,-0.05400731169723858,-0.10060952808925672,0.44469638221436014
10.618629932403564,6.696008233932061,0.30547578064184405,2.559217034354619,1.3754807073196675,-0.1470295112171919,-0.003910234543381418,0.6418371913226539,0.8348879507532339,-0.05283096400221005,-0.09408263083341195,0.3263448627922383
10.63872218132019,6.723645547356723,0.3027018309163868,2.559128341554606,1.388217331098562,-0.13038242660337318,-0.004955146963313053,0.6318459617104466,0.8297984079692711,-0.05166141668419511,-0.08370050001634954,0.5191065408531204
10.658689022064209,6.7515909748513945,0.30045691671035935,2.559002840481525,1.4021132110674068,-0.10894901767026419,-0.00638003058202923,0.6221381199452757,0.8244550030843127,-0.05044449397830063,-0.07057667196638207,0.6561914024983739
10.678801536560059,6.779757024614222,0.2984424649000831,2.5588652316424927,1.4144597459534352,-0.09251438898397087,-0.007376827379201696,0.6125323322834839,0.8189873543195854,-0.04923671192707507,-0.06070525008261596,0.49357109418830536
10.698711395263672,6.808208518235902,0.2969198371393694,2.558693528079674,1.4276343600398236,-0.07214685159764818,-0.008698731564714119,0.6080587253001764,0.817942008203731,-0.047989837939254536,-0.047798253281993386,0.6453498400311286
10.718598127365112,6.851324701372011,0.2952006592584298,2.558404943086088,1.4461676680037399,-0.04541018647827383,-0.010295419050567889,0.6002450263423177,0.8239857788561047,-0.04669789631646174,-0.030510583516938805,0.864383488252729
10.738708972930908,6.880367588008755,0.2944576314714043,2.558189780594725,1.4580952951930197,-0.028874052195479973,-0.011216567639746136,0.5925348665129117,0.829547891111285,-0.04541916220298636,-0.01969757691834806,0.5406503299295373
10.758688688278198,6.894978234763333,0.2942596350388278,2.5580704851838476,1.46383808915315,-0.019189371307904473,-0.011800169301435837,0.5725006083798849,0.8333806253357398,-0.044155494472365296,-0.01312837048046056,0.3284603218943749
10.778635501861572,6.939158160956231,0.2940827988034909,2.5576925091649123,1.4810748037538908,0.00643969277942568,-0.013223507617192178,0.5529009054698919,0.8301880602921653,-0.0428557388390626,0.004240742310113621,0.8684556395287091
10.7986900806427,6.968888955657476,0.2943774078161141,2.5574195537547273,1.491941004287869,0.023009926880711035,-0.014067751556316576,0.5338021894399049,0.826803631412799,-0.04157118451242693,0.014256790681178355,0.5008024185532367
10.818618774414062,6.998858276863024,0.2950303571692297,2.5571255333840077,1.503091331071391,0.04025611589736749,-0.014995115318373964,0.5128479867530648,0.8293603099661936,-0.04027615249428946,0.024444318954418787,0.5093764136620216
10.838659048080444,7.0290213041908896,0.29600150207324155,2.556817661370315,1.513143421930933,0.05686557122857796,-0.015787823399979736,0.49245394929598096,0.831519418860251,-0.03899735612256434,0.03371777801667619,0.46367295311287027
10.858665466308594,7.044205467368451,0.29662596483935516,2.556655800680148,1.5187154318166582,0.06555123261837678,-0.01622366756257865,0.4744744715585876,0.829360310575288,-0.03774390292235654,0.03800459070427342,0.2143406343798615
10.878699541091919,7.074673495559227,0.29810270604648187,2.5563238613078614,1.5280290061309956,0.08211492161405293,-0.0169661450569257,0.4569600484860298,0.8269704265403264,-0.03650651901686814,0.04714881315387265,0.4572111224799613
10.898699760437012,7.105391123094001,0.2999158632381944,2.555972778877996,1.5386338029530904,0.09871865294098593,-0.017805692297155968,0.4375781630702593,0.8211891798606388,-0.03526119907791403,0.05541555494183914,0.4133370893983246
10.919095993041992,7.151784002627826,0.30324451426441795,2.5554195713358006,1.5525737434044153,0.12301545388893681,-0.0189379644539061,0.4101721940372376,0.7882013216964332,-0.033991642630899675,0.06757836977790488,0.6081407418032869
10.938679695129395,7.1829157263348735,0.3058603027839673,2.555034097436729,1.5605100339563882,0.13845599276581844,-0.019605254788942213,0.38359403133254666,0.7559796006714411,-0.03274044163911229,0.07397838254931521,0.32000063857051675
10.958667755126953,7.198570898980278,0.30729696309740395,2.5548350664550616,1.5650162094508449,0.1461975401253645,-0.019961613513693206,0.3588248974425654,0.7218672307352513,-0.03151898768669409,0.07699596954363841,0.1508793497161598
10.978834390640259,7.245736688734136,0.3120814371889529,2.554219087922587,1.5771020936168927,0.16974456776220395,-0.020981413805397073,0.3330828075350977,0.6891639022433095,-0.030277159731687805,0.08840616582710048,0.5705098141731035
10.998703002929688,7.277343670754807,0.31561202013070566,2.553793486040536,1.5835129457021424,0.18320731353127936,-0.02157469908656728,0.30813383217447304,0.6572399062778621,-0.029054563822645544,0.09306410802222098,0.23289710975602507
11.018582105636597,7.293240868779807,0.3175644331976025,2.5535724782885287,1.5877105532570204,0.19204229864647104,-0.021966675967550822,0.2846427489255835,0.6284094490220212,-0.02785834990722884,0.09652555898257154,0.1730725480175277
11.038742303848267,7.325050480079694,0.32152907423060006,2.5531276519002515,1.5931747862038883,0.20432804647313285,-0.02251203852763087,0.261905444349108,0.6002818735656064,-0.026681048142925854,0.10173159392924092,0.260301747333469
11.0586998462677,7.357058257311435,0.32591112695686697,2.552665220709026,1.6005129796986386,0.22048957691640347,-0.023200905353144993,0.24109873109378746,0.5748718338004624,-0.025501683911898023,0.10831350050825517,0.3290953289507126
11.078717708587646,7.3891153835019,0.33043422944549977,2.5521961799128983,1.6051325442912165,0.2317380079672873,-0.023699308088976124,0.22097008283951391,0.5500725345596661,-0.024341830541500954,0.11219149032727316,0.19389949095089953
11.098685264587402,7.405227363230159,0.332882413172618,2.551955254244041,1.6085316761755524,0.2399516315787536,-0.024007092484110412,0.198790123584636,0.5280819379830736,-0.023210849901316652,0.11513405133737864,0.1471280505052741
11.118599891662598,7.469801834282205,0.34305326917187856,2.5509739439536308,1.618146851033837,0.26463000895317923,-0.024977812448146286,0.18753181913600553,0.5193217269246844,-0.02204624843849188,0.12551322933789733,0.5189589000259343
11.138686180114746,7.502201541691595,0.34844915086925665,2.5504700550563473,1.6217873329721935,0.2749290393675817,-0.025407264453400615,0.17656469771714317,0.510585307324737,-0.020902397855519315,0.1277136294668968,0.11002000644997345
11.158671617507935,7.518444520206201,0.3512807612920833,2.5502149968261465,1.623844196316529,0.2815392585860565,-0.025605381291272343,0.16172694731939102,0.5046182033630762,-0.019794300502492035,0.13012207546844579,0.12042230007744958
11.179293394088745,7.567239514609752,0.35998684814619153,2.5494387708768733,1.6287882475464779,0.2974956638790944,-0.026160062125522486,0.15275920377424235,0.49744005949640185,-0.018684201036320233,0.1363961510732512,0.3137037802402709
11.198737621307373,7.599845246128396,0.36603576964776174,2.5489119057659866,1.6317558492882016,0.30737247655668687,-0.026522817544841187,0.1440426593507085,0.49023715839170884,-0.0175947729040086,0.13906764939186367,0.1335749159306232
11.218608379364014,7.6161583801223935,0.3691400142501447,2.548649077643651,1.6327726942174552,0.31242121961837055,-0.02659232528977263,0.13771964051644717,0.4931036584374928,-0.01654685929175413,0.14060405703134427,0.07682038197402985
11.238795757293701,7.648840966468719,0.37548723169242887,2.5481139906395205,1.635465534099037,0.3223088297908782,-0.02691294783295519,0.13159771623358313,0.4955952954477324,-0.015518669687706496,0.1443061465536637,0.18510447611597147
11.258653402328491,7.6815427979844655,0.38200756442252826,2.5475788708760714,1.6371061765895258,0.3315064790628072,-0.027054975589982638,0.12060297472091981,0.49833529297784496,-0.01451565828399628,0.147249685856238,0.1471769651287147
11.27884292602539,7.7143083268738275,0.3887375250533324,2.5470349341330993,1.6394112445993667,0.34149747455469276,-0.027335419728335406,0.10996259165879285,0.5007025350540181,-0.013531962108405193,0.15061368976874645,0.1682001956254231
11.298741579055786,7.730675537598008,0.39213261379524866,2.5467661724496833,1.639512657397689,0.3451969301385671,-0.027309440937849202,0.10281655395409066,0.5021230483024249,-0.012590543917442775,0.15131058563276234,0.03484479320079448
11.318642139434814,7.79629355060953,0.40624746412500456,2.5456722132759997,1.642394591825608,0.3629162522378405,-0.027588175765479714,0.09376139837289953,0.5063936484041665,-0.011645751898849846,0.15827686395280915,0.34831391600234074
11.33873200416565,7.829159605733426,0.4136073314390759,2.5451181826475118,1.6441817143772512,0.37308330585388005,-0.027811800967459863,0.08499949491117989,0.5102417433070716,-0.010719914568643948,0.16050035732759893,0.11117466873948878
11.358681201934814,7.8455674985275445,0.4172933108679506,2.5448457332978864,1.643833328074152,0.3761958972105367,-0.027735758090157676,0.07299532226756623,0.5139540903014321,-0.009836979063458522,0.1612268932185188,0.0363267945459933
11.378882884979248,7.894884256205583,0.4287325941900451,2.5440146164783863,1.6450506926524877,0.3893797502808907,-0.02786837524914822,0.06245913153624156,0.5130786611018345,-0.00896522084969303,0.1662595204757671,0.2516313628624145
11.398714303970337,7.927797078146179,0.4366227340684446,2.5434555131447456,1.6461976238797493,0.39963048791435846,-0.028039112298389433,0.052295807752018746,0.5119538259678535,-0.008111473424528231,0.16890650098629711,0.1323490255265014
11.418633460998535,7.960684150322366,0.4446046801739177,2.5429019214865765,1.6460062748611244,0.4070463965546511,-0.027975731650399637,0.04415249629373155,0.5087869293015966,-0.007287436307324956,0.17113096209195744,0.11122305528301624
11.438706398010254,7.9936125783292065,0.45284714687412986,2.5423410034326706,1.646810373220835,0.41718921879619725,-0.028113384845156096,0.03630666464309179,0.5054705643669951,-0.006480765378849149,0.17442439874683613,0.1646718327439345
11.458682298660278,8.010053868700833,0.4569805103971956,2.542064985433355,1.6463306073142796,0.4204490349324586,-0.02801630094894978,0.03453435628936351,0.5067191793423024,-0.005712507675569671,0.17483888339465947,0.020724232391167163
11.478697538375854,8.04298727348558,0.46549090173711466,2.5415035673096464,1.6470042243978045,0.4305931676096941,-0.02812300519059971,0.03284031052920608,0.507639823865017,-0.00496063598185733,0.17862815982604374,0.1894638215692135
11.498649597167969,8.059430146168124,0.46976713126852454,2.541226646523953,1.6464395709292161,0.4340709214745391,-0.028036534334242923,0.026892876300015335,0.5038773737089716,-0.0042436344908116375,0.17891894614347015,0.01453931587132029
11.518643856048584,8.12525678533871,0.4874566415564698,2.5401074812567797,1.6461421535688159,0.45231618787604766,-0.028056555990307767,0.021810472861587486,0.5011027282893352,-0.0035271035546346197,0.18581412415720644,0.3447589006868146
11.538630485534668,8.158183661820964,0.49660299331091545,2.5395456916867505,1.6465292286363966,0.462309234880182,-0.02812006572814636,0.0169306347859977,0.4981769561532227,-0.002826515904496542,0.1875094255679226,0.08476507053580828
11.558653116226196,8.174611484383224,0.5012074170616991,2.53926794808171,1.6455392859843176,0.46605052861512986,-0.028041483645572175,0.009013095540529072,0.49724970947332997,-0.00215806470065159,0.18853076638961275,0.0510670410845071
11.580156087875366,8.223951354977538,0.5153773364683508,2.53842845816748,1.6448718200344838,0.4799600452259916,-0.02802261406543541,-0.0010994126393501235,0.4963671485957197,-0.0014989151896728599,0.19344615971525014,0.2457696662818698
11.598655223846436,8.25684791611945,0.5250757409815329,2.5378677492845134,1.6447518366975011,0.4898767332389218,-0.028046127798289116,-0.010836716172356767,0.49526533798455064,-0.0008549830678607266,0.19558913011546775,0.10714852001088015
11.618623971939087,8.2897071134996,0.5349256915963175,2.5373106927706495,1.6436707065774998,0.498663331462491,-0.027958678969422286,-0.018942985029959447,0.49886765504608827,-0.0002321978261013067,0.19824802232392935,0.13294461042308026
11.638760328292847,8.322576215056202,0.5449989516987754,2.536751513531859,1.6432135225716018,0.5086733413465617,-0.027957218154190982,-0.02672099647563077,0.5020665077079117,0.0003758310351348599,0.20105353999843745,0.14027588372540478
11.658645153045654,8.338994572083614,0.5500814388106174,2.5364743798285607,1.6425669320099618,0.5128422421008229,-0.027878991736366137,-0.029398889346171752,0.5008292990639468,0.0009560621093327157,0.20177354896615052,0.03600044838565353
11.679764986038208,8.388249380943293,0.5656605110044676,2.5356404851380114,1.6414038577297987,0.5269181470996117,-0.027787135341537397,-0.030481892371121293,0.49386834821536163,0.0015268005822200639,0.2066432339123545,0.24348424731019946
11.698657274246216,8.42107129439619,0.5762971806241358,2.535085085135394,1.6407842022145005,0.5367254170774522,-0.027751009407610147,-0.031467512843677284,0.4868490335433126,0.0020834565388211566,0.20856607519502246,0.09614206413339765
11.718620538711548,8.453852156170452,0.5870980452963455,2.5345331562694136,1.6394128993751502,0.5456979549347551,-0.0276400974182267,-0.030965412575354914,0.4802619326246177,0.0026214052893053425,0.21122139698822195,0.13276608965997472
11.73874020576477,8.486634257317412,0.5981076137870973,2.533980913781397,1.6387990733027598,0.5552366809374536,-0.027582403759220102,-0.03040802742345065,0.47359799911559264,0.0031456947043375905,0.213652849255769,0.12157261337735203
11.75870156288147,8.502994094223935,0.603680205149996,2.533706418871445,1.6377453073157222,0.5598375801950258,-0.027513793624400176,-0.027832873836094462,0.467242436798066,0.003646625491616931,0.2146013258518451,0.04742382980380544
11.778673648834229,8.535743604920206,0.6149699773364785,2.533156905066699,1.6372143094613887,0.569118174008117,-0.02743596054006112,-0.025268724698687645,0.4608031322167228,0.004134520591441205,0.2174155649612879,0.14071195547213922
11.798736095428467,8.568434110541013,0.6264603758132581,2.5326095775656854,1.6355031573573953,0.5787269166951119,-0.027336753436897496,-0.021962199241514838,0.4576863535654152,0.004607654427935797,0.2199372026431794,0.12608188409457544
11.818703651428223,8.60111993053398,0.6381336355497449,2.532063825372324,1.6344388235247367,0.5880998141509983,-0.027239019564876895,-0.017035587484553638,0.4553812439712291,0.005067331815303232,0.22235483780236853,0.12088175795945677
11.838753700256348,8.633805624704204,0.6499865434490316,2.5315200884638736,1.6341467743668654,0.597182563021545,-0.027133180877703587,-0.012181312326888556,0.4528574715958655,0.005514454596322413,0.22447125435075277,0.10582082741921184
11.858792304992676,8.666427629990219,0.6620333477943331,2.5309786465880446,1.6324608147045272,0.6065053782235997,-0.027016040610308264,-0.007782098092304419,0.44952785606319456,0.005947336753327316,0.22699103270224086,0.12598891757440445
11.878735303878784,8.699075580050653,0.674253128883566,2.530439543489759,1.63234864940564,0.6154609619908282,-0.0268928670381273,-0.0034446655014360554,0.44599729674845995,0.006367992801278662,0.22900847180007622,0.10087195489176803
11.898763179779053,8.715357139132474,0.6804338330933106,2.53017109325376,1.6311625601930835,0.6199995083426121,-0.026820860966460497,0.0013242392872913175,0.4430843771099218,0.0067697723265631084,0.2298800165852417,0.0435772392582745
11.918627738952637,8.764247863656653,0.6992386255596409,2.529369409843963,1.6299690967478182,0.6334173073982781,-0.026617358614705225,0.006425796882266707,0.4395908564014244,0.007163281478660463,0.2339023670653546,0.2011175240056451
11.938666582107544,8.796848866613413,0.7119946462207948,2.528838520975384,1.6301479218033503,0.6421723981410397,-0.026470255593029565,0.01144267551233885,0.43588274143325734,0.007545078490100654,0.23509416067330946,0.059589680397742484
11.958714723587036,8.829390241041795,0.7249331836291047,2.528310504488239,1.6288357635634108,0.6510543553533771,-0.026320221102177424,0.017434171357794508,0.4311640723702928,0.007913124463148515,0.23756855981701053,0.12371995718505335
11.978665828704834,8.861970836426476,0.7380401802650237,2.5277857066582623,1.6292433369441763,0.6596290002375584,-0.026158372970056024,0.023302806516017596,0.4262717227796837,0.008269804028968831,0.23922360818238797,0.08275241826887214
11.998647928237915,8.878224105975457,0.7446643584193103,2.5275243968390937,1.6283445293674568,0.6640395525917697,-0.026076424785610963,0.024681623782405526,0.42171152241568166,0.008609706892065704,0.24004047633495995,0.04084340762859906
12.018582105636597,8.94331951979371,0.7715778879401023,2.526487831929652,1.6279527948650712,0.6812151915809131,-0.025737942203155804,0.028660970966291985,0.41665053755747217,0.008943515954222436,0.24475306531225138,0.2356294488645716
12.03866958618164,8.975884569588228,0.7852851766449673,2.5259748834936633,1.6285652103594874,0.6894962879143199,-0.02555582524926517,0.03256871726678023,0.41143328733430307,0.009266361813890409,0.24525527007438308,0.02511023810658486
12.058701992034912,8.99214379576377,0.7922061380773108,2.5257196856651802,1.6281395038450366,0.6937437969053141,-0.025463647986998048,0.03701093602606609,0.40947395593113123,0.009573077031828166,0.2463995550962781,0.057214251094750423
12.07924509048462,9.024714279552692,0.8061627650122869,2.52521234724386,1.6289233747728353,0.701911489217008,-0.02526920668739521,0.041360873030073665,0.40725181094069157,0.009869316181313663,0.24817108135598254,0.0885763129852224
12.09915041923523,9.04097918363401,0.8132087457467905,2.5249599074917173,1.628623043525064,0.7061477204631653,-0.025174455470165807,0.04492067276206181,0.40602756670007456,0.010150528763328353,0.24871162535920188,0.02702720016096727
12.118625164031982,9.106122074998577,0.8417825151769209,2.523960717040028,1.6295146263127103,0.7224565320937137,-0.024772786381182528,0.0470633999725322,0.40821641971218553,0.010423524851784275,0.25276055503267836,0.20244648367382378
12.138728380203247,9.138721921365184,0.8563134149833037,2.523467363716091,1.6304770405388351,0.7306394110913668,-0.024561669376612614,0.04917246830695773,0.4100052761988468,0.010686517419353248,0.25323261284334153,0.02360289053315867
12.15871286392212,9.155012272320116,0.8636331551459752,2.523222429781394,1.6305047276931917,0.7345324282032483,-0.024448090312779863,0.04971005695291794,0.4116249474381565,0.010934573961861144,0.254144320118352,0.045585363750522134
12.1787109375,9.187632345473379,0.8784062178340566,2.5227356709497295,1.6315044295830874,0.742777985682771,-0.024226997770122195,0.050262644452229006,0.41286855758581276,0.01117310075960694,0.2557373449824567,0.07965124320523653
12.198629379272461,9.220256044048035,0.8933194989149239,2.5222537886052128,1.6321332940680222,0.7504048679970651,-0.023990039018115913,0.05073435581882205,0.41418743290759535,0.01139770284014433,0.2570199180865993,0.06412865520712963
12.218591928482056,9.269240188807728,0.915997630963358,2.5215397172769594,1.63360782888411,0.762249777183802,-0.023631714878262617,0.05292776087124387,0.41467009353638123,0.011610698984244107,0.2593228512192285,0.11514665663145962
12.238721370697021,9.301923075847666,0.9313255754967923,2.5210694188716634,1.634688098907604,0.7705451401743594,-0.023397445435602366,0.05509490895576766,0.4148093783824983,0.01181476539240649,0.2602955586681932,0.04863537244823579
12.258679389953613,9.318273660561227,0.9390315424679885,2.520836650262777,1.6352889258243082,0.7741248740005902,-0.023260065936977374,0.05740141896239344,0.4156704935284374,0.01200493277100008,0.26075412154871014,0.022928144025846642
12.278697729110718,9.350991071497011,0.9545972129655773,2.5203738621842646,1.6364597475822276,0.7824438159412266,-0.023018136254891127,0.05967537636249096,0.416162634311766,0.012186632180957118,0.2624973528635257,0.08716156574077871
12.298692226409912,9.367358395129111,0.9624230256616385,2.5201447875778227,1.6370641667764187,0.7860619856905092,-0.02288037356676862,0.06132501350160846,0.417420695817263,0.012355461471344874,0.2625483969406921,0.002552203858319224
12.318655252456665,9.432888036112544,0.9941691126137409,2.5192401252524586,1.6394968690391825,0.80199249613532,-0.02236742166611723,0.06379032592761426,0.4164083625953122,0.012511891937021435,0.26591504381398456,0.16833234366462335
12.338736057281494,9.465690893418303,1.0102921612327291,2.5187952892342143,1.640796913303326,0.8103079608973036,-0.02211568481463105,0.06620586849346159,0.415086977176824,0.01266049655990442,0.2662944439679147,0.01897000769650603
12.358696937561035,9.482103170738286,1.0183972857879346,2.518575283213365,1.6415077221267746,0.8139072587697131,-0.021973425004867292,0.06827513207398975,0.4124733435079556,0.0127973081565679,0.2669224236304091,0.03139898312471967
12.378652334213257,9.514947116124867,1.0347577380816337,2.5181383829242874,1.6428935788178451,0.8221283731513759,-0.021716172582283796,0.07030382866577015,0.40959417630217204,0.012926705798864862,0.2684145784483083,0.0746077408949608
12.398665189743042,9.531379690728256,1.042985529081745,2.51792223433676,1.6436181011889064,0.8258182795414569,-0.02157534399064395,0.0720121364598031,0.4077935447801748,0.013045288564965432,0.26848902317514867,0.0037222363420186255
12.418643712997437,9.580720552716357,1.0679358712770264,2.5172810568694137,1.6458018992738592,0.8378168233450253,-0.02117718934982074,0.07482951119084809,0.4052256183843724,0.013152953915465738,0.27080696603202314,0.11589714284372388
12.438740253448486,9.613651740766977,1.0847730678269285,2.5168601505096095,1.6473260533746164,0.8458933508066259,-0.020913110459592647,0.07757380429669417,0.4023814372098952,0.013253806597804245,0.2713447672806941,0.026890062433548856
12.458676815032959,9.646614168404213,1.101764081900016,2.5164447225286106,1.6489095885680967,0.8537507519181193,-0.020643182771300117,0.08101335233486114,0.399966988853427,0.013343499045389577,0.27262259882195927,0.06389157706325754
12.479801893234253,9.69611618713774,1.1275538873048927,2.515831493779842,1.6513310527325629,0.8655987485880388,-0.020240413526716423,0.08629120739517834,0.390795874635829,0.013422598412532743,0.2742527909671342,0.08150960725874512
12.49873685836792,9.729160410928687,1.1449434063155666,2.5154293749910197,1.6531084292280291,0.8733223344913498,-0.019971222405409755,0.09142209697735718,0.38155051252474914,0.013495484724534013,0.2748155408048083,0.02813749188370629
12.518666505813599,9.745692574573702,1.1536966923390353,2.515230376631791,1.653975577923735,0.8770748988590494,-0.019834936434501908,0.09831924392985632,0.3689866410575062,0.013560187708544036,0.2753228200609317,0.025363962806168594
12.53872299194336,9.778792200313058,1.171311152226909,2.5148363939588543,1.6560093556315276,0.8843293556255626,-0.019563134835710417,0.10502716498132471,0.3564663625181992,0.013618996001489435,0.27611701035035363,0.03970951447109794
12.558659791946411,9.811913808253292,1.1891009616081407,2.514447428601589,1.657632889133365,0.8921859744487862,-0.01930228482401993,0.10944746328193984,0.3408930159013729,0.013668542297769438,0.2771803483293769,0.053166898951162445
12.579261302947998,9.861675401782852,1.2160573057727575,2.513873861659957,1.6604896520981933,0.9035242756247546,-0.018910992357618693,0.11494346502918788,0.34451004383357736,0.013709050053605702,0.27849814436308584,0.06588980168544811
12.598686695098877,9.894908540289022,1.2341969014466976,2.51349838605431,1.6628418778636183,0.9104451539563728,-0.018636451083253423,0.12024731406231631,0.3474688533821729,0.013744188385247103,0.2787370540578187,0.01194548473664181
12.618719577789307,9.911528897391738,1.243347288965962,2.5133119582561285,1.6637089332740156,0.914780790815094,-0.018519607880914862,0.12761901213459112,0.3579448873229879,0.013773920150479936,0.2794858177590558,0.03743818506185548
12.638739109039307,9.944829079881437,1.2617151445636008,2.5129443226076558,1.666333127687106,0.9220365218240014,-0.018243874962121067,0.13476265679743124,0.3674709654628368,0.013798522568807214,0.2799707705292751,0.024247638510965785
12.65874433517456,9.978153713855503,1.2802239903069657,2.5125819031901186,1.6683092776743764,0.9292594410862407,-0.017972300210608083,0.13684038086668865,0.38358998504000924,0.01381409312222165,0.280819436663271,0.04243330669979617
12.678936958312988,10.011547405493737,1.298886909912136,2.5122252208023887,1.6710667780891042,0.9370821362771455,-0.017695902642064245,0.1389079612224755,0.39847531873219566,0.013824870312916947,0.28153691447021245,0.035873890347071224
12.698644876480103,10.028246179702306,1.3082398820080725,2.5120496166575936,1.671933262826825,0.9400698016811734,-0.01753737150893108,0.1391398307754701,0.41305870058916255,0.0138285405094023,0.28150111184080107,-0.0017901314705692783
12.718630075454712,10.095216311725109,1.3460710324765668,2.5113610277324594,1.6770576050569217,0.9540896779256005,-0.01693692882813666,0.13739348730445147,0.4191078144938723,0.013816013170006221,0.28300170811266945,0.07502981359341909
12.738717317581177,10.128784833625526,1.3652370065404233,2.5110250513197436,1.6797892644578416,0.9625249425633066,-0.016660767749490064,0.1357972922204209,0.4242722558637901,0.013799422321252213,0.28335386666553486,0.01760792764327057
12.75866436958313,10.14558801434543,1.37482516199464,2.5108604802535974,1.681095250712732,0.9651529145978808,-0.016484940863769566,0.13259155088902025,0.42724773922544873,0.01377579721379564,0.28346828439306115,0.005720886376314738
12.778875827789307,10.179236233608677,1.3942138293574873,2.510533534832326,1.68371663225991,0.9737211556798034,-0.016209692550197184,0.12957850168569224,0.4294481248981253,0.013748412099643382,0.2846076854113506,0.05697005091447327
12.798758745193481,10.196088361092578,1.4039229957337085,2.510373214178976,1.6852742874426885,0.9766114219013854,-0.016042049804037613,0.1303979276044536,0.42690495001938616,0.01371498198801494,0.2842098624669558,-0.01989114721974161
12.818648099899292,10.263625329258822,1.443276972310206,2.5097436531828468,1.6910784156126772,0.9923756716003312,-0.015466334889633766,0.13663438420637858,0.4184641369421556,0.013666970607414869,0.28601616201361724,0.09031497733307248
12.838718175888062,10.297474632713472,1.4632075995251275,2.509437056523714,1.6938722187751942,1.0006578282736114,-0.01519350135268607,0.14272108323009192,0.4096977474418935,0.013615872728705018,0.2860578351853382,0.0020836585860495305
12.858673095703125,10.314428708588098,1.4732175916249006,2.5092861995598037,1.6955883506628016,1.0042313009027974,-0.015047166076693434,0.1514926422441102,0.401895035995792,0.01356111253057689,0.28644522409351447,0.019369445408812247
12.879083395004272,10.365356685062828,1.5035294142574125,2.5088410199085436,1.6999644274093182,1.0163696980892696,-0.014637598892262073,0.16087214590755897,0.39518429968123187,0.013497507863697104,0.28753043276203893,0.05426043342622311
12.898735284805298,10.399388758411519,1.523935379367125,2.5085509630597422,1.7032731787649635,1.0242032246627508,-0.014368306797527087,0.1699535933757451,0.38810793737537364,0.013431265706878736,0.28760056891996877,0.003506807896491715
12.918647289276123,10.416414116457341,1.5342065251119963,2.5084078444030284,1.7045397312811292,1.0282221143685135,-0.014238009489261284,0.1734100982250856,0.3702755443662822,0.013362978061290394,0.288131975012035,0.026570304603312778
12.938709735870361,10.450539818003023,1.5548438351487908,2.508125752131623,1.7080415766643957,1.0354495465265412,-0.013971453571957206,0.17675613227382658,0.3524727357614782,0.013292202581762724,0.28821548131164043,0.00417531498027035
12.958633661270142,10.484699754587435,1.5756688766362332,2.50784855179282,1.7106928476180479,1.0435941021704398,-0.013718590281639334,0.17677758186066247,0.33672299968656344,0.013216158030744607,0.2890602167297116,0.04223677090355871
12.978845834732056,10.536085744062117,1.6071777192144228,2.5074419965448467,1.715610860741455,1.0549205438348326,-0.013351109367555404,0.1769877611058462,0.3117982382668084,0.013133807166178176,0.2895058842562874,0.02228337632879107
12.998681545257568,10.570433373189793,1.6283368430298182,2.5071775955250795,1.7191527758021317,1.0609097505480367,-0.01308927401376313,0.17720489148807136,0.287172064653118,0.013049386433520256,0.289233579937465,-0.013615215941120695
13.0186607837677,10.604845655254106,1.649705632765557,2.506915920095233,1.7225379266836778,1.068825136484608,-0.012894060380410674,0.1735701541411351,0.2586718966285109,0.012963605184507588,0.28998598204204784,0.03762010522914139
13.038717269897461,10.639330893229252,1.6711319918879144,2.506660625791788,1.7259742692404145,1.0737172419723007,-0.012635662425988957,0.1700896447199456,0.23061170819184995,0.012875867251532665,0.28929077677822645,-0.034760263191069285
13.058695316314697,10.656602405079822,1.6819610544717698,2.5065326490241517,1.7277351750136736,1.0780867140233161,-0.012573210854020227,0.16472679778365446,0.20257111698651603,0.01279106429731344,0.2901142956583582,0.041175944006588416
13.07875943183899,10.69118970856419,1.7035614564946242,2.506283737267933,1.7309781056061784,1.081861544087536,-0.01231825399139055,0.15960639851335753,0.17498780509260645,0.012704297833418457,0.28940337588669784,-0.03554598858301894
13.098738670349121,10.708520007259967,1.7144955818385952,2.506158629294561,1.732931668747972,1.0864178192642162,-0.012265530647308344,0.15849129904108786,0.14764560407307992,0.012620908916423148,0.28998630482758525,0.029146447044370305
13.118640422821045,10.777992607852141,1.7582561271593213,2.505674261829254,1.7399625749660435,1.0966378433518926,-0.01185770203474659,0.15694059774733962,0.11922725129229195,0.012531525156237417,0.28921768779466417,-0.03843085164605409
13.138721227645874,10.812823148395339,1.780210861808237,2.505439608043449,1.7430865967330602,1.098742684089455,-0.0116079805564524,0.1554757908116373,0.09134593802362154,0.012440322542712863,0.2884900590886774,-0.03638143529933746
13.158636808395386,10.830277558471742,1.7912998474733017,2.505321703473871,1.7451102411614987,1.1023511306992733,-0.01155364076671115,0.15856952533857685,0.08677140853120698,0.012352368062354799,0.28908947767008275,0.02997092907026655
13.178712606430054,10.865211680658998,1.8133639086589317,2.5050930951765795,1.748312103940708,1.1040390251322818,-0.011307488256435778,0.16160743575534728,0.08198265372455085,0.01226258047428942,0.2876478441578487,-0.07208167561170153
13.198624610900879,10.900224631429525,1.8355950553793066,2.5048665664192264,1.7518569822137056,1.1086104166325779,-0.011130370593687558,0.16083136611054644,0.05270308393296308,0.01217164254194081,0.2880325937982917,0.0192374820221497
13.218992233276367,10.935293887907495,1.857775881744794,2.504646387187045,1.7550662315844279,1.1093765780611202,-0.01088786148720009,0.16010115468841205,0.024010439324419524,0.012078984322250762,0.2867293301482112,-0.06516318250402442
13.238662958145142,10.951098804438653,1.867815826457227,2.504548131560731,1.7567484664504156,1.1111898417694916,-0.010800375115357185,0.1800945453360958,0.03070055288413941,0.011986907773553152,0.28697214288358985,0.012140636768931401
13.25870156288147,11.00387236320627,1.9012227194557574,2.5042293412829895,1.7619273103437447,1.113691785863385,-0.010445861465485469,0.19322720925446116,0.034190774963827504,0.011887385240367927,0.2852925552095651,-0.08397938370123814
13.278741359710693,11.039150402041555,1.9235035838222954,2.504022794825183,1.765918463821853,1.1144034781877423,-0.01020912075627401,0.20579452212580768,0.036839203079511586,0.011786453450036734,0.2847611952734588,-0.02656799680531563
13.298774242401123,11.056793912002341,1.9346675688058248,2.5039216783265097,1.767325308610303,1.1152374912780052,-0.010079542329552984,0.2195107696922495,0.03948652160296887,0.011684033349628163,0.28441865978784575,-0.017126774280651347
13.318606615066528,11.109863592022863,1.9681239070081287,2.5036257757477376,1.7725878629109226,1.1158223339068272,-0.009693582656185588,0.23052480268069248,0.03827920467664346,0.011571991147490416,0.2824845791837003,-0.09670403020727303
13.338802814483643,11.145362163005464,1.9904478957555205,2.5034342109753682,1.7773042515085506,1.116570302351198,-0.009463271242157617,0.24102976022969402,0.03640783437429345,0.011458993180965863,0.28167393135958285,-0.04053239120587193
13.358680009841919,11.180876206128575,2.012720234332945,2.503249922394577,1.7800380978064554,1.1153635498372163,-0.009166831478084614,0.23207836500130608,0.009166140013737093,0.011337371285486965,0.2804899286491782,-0.05920013552023207
13.378825187683105,11.21652280062306,2.0350275522772576,2.5030688451009495,1.7845924204088732,1.1152794252326104,-0.00894130529363346,0.22339893808060335,-0.017479760148564533,0.011215148970228801,0.27949994004806733,-0.049499430055544025
13.398724555969238,11.234340804265265,2.0461433832084954,2.5029819183787643,1.7856822974806135,1.1138854286839963,-0.008775680471526059,0.21303327386070156,-0.04611828974135502,0.011090059545576266,0.27887822551305286,-0.03108572675072363
13.418694257736206,11.305940614421592,2.090690904205721,2.502642001777664,1.7942719649530405,1.1126024034892583,-0.008280452613269462,0.2038281100920126,-0.07290782659015675,0.010951028314111705,0.2756337083226206,-0.16222585952161417
13.438690185546875,11.341866221152658,2.112926620673046,2.5024785736640913,1.798259055010099,1.1108823367656646,-0.00806282205582826,0.1949321034069819,-0.09897989541158383,0.010812035024742421,0.2749236862380249,-0.03550110422978481
13.458792924880981,11.359879782412344,2.124058451116851,2.5023990855880283,1.800787069928758,1.1105036125502952,-0.00793982444592579,0.18930056859688546,-0.12202328043592818,0.010673710477785066,0.27456499559957503,-0.01793453192249217
13.478663206100464,11.395933018036855,2.1462426135847004,2.502242414624615,1.8045183561383455,1.1078378931455768,-0.00772773263423676,0.18385961292553987,-0.14444571680360863,0.010535489070802985,0.27274283640245933,-0.09110795985578513
13.49871277809143,11.414021014056518,2.157363362782291,2.5021661257319168,1.807279658992757,1.1076001661973824,-0.0076104534360257135,0.18031476006026909,-0.16612899663471004,0.01039818826916503,0.2725126824799551,-0.011507696125212519
13.518686532974243,11.46835303374197,2.190572241964676,2.5019430910793354,1.8135866742323565,1.103994634234841,-0.007282261965136262,0.178684889685464,-0.18800774299403153,0.010254412488229715,0.2694457306181368,-0.1533475930909134
13.538785457611084,11.504660398381962,2.2126131061215513,2.5017994871572298,1.8171445454816173,1.100020956019178,-0.0070786081763970655,0.1771115893104184,-0.20925548840092983,0.010111033388713584,0.2681996316091406,-0.06230495044980966
13.558696746826172,11.541073212785463,2.234633030905436,2.501661020491072,1.8214978348989128,1.097195417121741,-0.0068499457324183045,0.17426275660275273,-0.22904320609518536,0.009963894783987336,0.2666241485703962,-0.07877415193722204
13.578733682632446,11.577537836850235,2.2565298407181476,2.501526004575644,1.8249553907010996,1.092421554943684,-0.006652134301566594,0.17150847132062522,-0.24824607551544722,0.009817347550073376,0.2649027067602323,-0.08607209050819353
13.598634958267212,11.595813777209859,2.2674796092062794,2.501460901746779,1.827158088816997,1.0908436455131088,-0.006528452230097861,0.16934737465802763,-0.26731482098649695,0.00967157798024511,0.2644000803639459,-0.02513131981431993
13.618605613708496,11.669064606037795,2.3109686526156104,2.501209231864353,1.834619063639657,1.08167016049459,-0.006099745326880328,0.16573850917354357,-0.28400593841333965,0.009514336884486217,0.2594996688488984,-0.2450205757523749
13.63872218132019,11.705789899749272,2.332544167286816,2.5010891293947233,1.8378986325367044,1.0758273596623287,-0.005911022287125736,0.16223599581759504,-0.3001901204507145,0.009358141628138316,0.25864654392656483,-0.042656246116679064
