t,x,y,z,vx,vy,vz,ax,ay,az,yaw,yaw_dot
6.644659757614136,-2.45780132239369e-06,1.0979718627142363e-06,2.0080020282445137,-0.0003674190876640762,0.00016415257182200393,0.00031618631602959825,-0.03649198286301068,0.016306744991621658,0.03141355743894517,0.031415926535897754,1.5707963267948966
6.664730787277222,-9.613933110052179e-06,4.314224662388954e-06,2.0080061590251215,-0.001075761903880029,0.0004834150258387339,0.0008417912157896271,-0.07083423650131394,0.03192309518717671,0.061620098561988135,0.06283185307179551,1.5707963267948966
6.685630798339844,-4.7513510821142436e-05,2.1376456021965296e-05,2.0080372724007804,-0.0028238786069000915,0.001272747611272817,0.002366225489626248,-0.10373934557658941,0.04690507324983559,0.0906240751717409,0.09424777960769326,1.5707963267948966
6.704705715179443,-2.404867068311604e-05,1.089828816908168e-05,2.0079757183208895,-0.002443326901859374,0.0010955160806213988,0.0007487926323652631,-0.13638979803613305,0.06035167060858797,0.11803089045119612,0.12566370614359101,1.5707963267948966
6.724653482437134,-4.2035474997285984e-05,1.9935399506386843e-05,2.0078719226435364,-0.003363032090372337,0.001522597045741941,-0.0006810891684756025,-0.16107784785854518,0.07074446694763491,0.14351845714620076,0.15707963267948877,1.5707963267948966
6.744707822799683,-0.00014310077215054945,6.520554770084297e-05,2.0078886493708215,-0.006822011871244802,0.003037493875181718,0.0024351029552580274,-0.18463235074728856,0.08066739556160395,0.1679209892887751,0.18849555921538652,1.5707963267948966
6.764642000198364,-0.00013169932198806144,6.652709322167568e-05,2.0077450294921855,-0.005979080029102646,0.0028439425504566637,0.000615712767268574,-0.19328787994457994,0.08847891833998586,0.19228843354155567,0.21991148575128427,1.5707963267948966
6.784564018249512,-0.00029048989936111797,0.00014160308797383814,2.0077973715096817,-0.00992712323547842,0.004688403782160207,0.004696091811334432,-0.20143163635200106,0.09590305915765347,0.21556950074740566,0.25132741228718203,1.5707963267948966
6.804623603820801,-0.0002986994517324084,0.0001529577883562053,2.0077699663937496,-0.009153504429578872,0.004648343642818178,0.004723816881247567,-0.20342668022208185,0.11099494264578423,0.24429264742081314,0.2827433388230798,1.5707963267948966
6.825072526931763,-0.0005225735692171431,0.00026909676072472185,2.0079151511851867,-0.013239604958599075,0.0070136626179279175,0.009886083251529152,-0.2051360260806103,0.12542778365465002,0.27171920724007076,0.31415926535897754,1.5707963267948966
6.844605922698975,-0.000734112259444205,0.0003710153236303119,2.008005972187261,-0.01533719503320236,0.008061403482245209,0.011371815836726406,-0.22867781502485116,0.142989187663431,0.29061885695658607,0.3455751918948753,1.5707963267948966
6.864631652832031,-0.0012584476357546575,0.0006275929695541052,2.0083615206545704,-0.021344829780329967,0.011084410208254444,0.016936493246637187,-0.2610316985347042,0.16261406803021902,0.3051297589835644,0.37699111843077304,1.5707963267948966
6.884719371795654,-0.0017396298807617783,0.0008830683919737911,2.0087622037345914,-0.026876075541367134,0.014525625170959395,0.02317751370582643,-0.29183626646146804,0.18136218620276157,0.3188396104882727,0.4084070449666708,1.5707963267948966
6.904672861099243,-0.0019724017448683497,0.0009836443634691882,2.0089296611825995,-0.028685362444479126,0.014825268829875705,0.024085148407814398,-0.3370192157448211,0.18387485945432086,0.3086472476203931,0.43982297150256855,1.5707963267948966
6.924580335617065,-0.0028774344306224512,0.0014488785398836513,2.009758152696158,-0.035898537928658936,0.018507858195418374,0.03263346071755497,-0.3641482234423824,0.17153791374616828,0.319138971081855,0.4712388980384663,1.5707963267948966
6.944595575332642,-0.0036699747644224,0.0018525369342959033,2.0104753145665244,-0.04344135534319515,0.02181793063546134,0.039115397124737925,-0.3899064741230794,0.1595226762305798,0.3289403624121924,0.5026548245743641,1.5707963267948966
6.9645843505859375,-0.004447553787291621,0.0022857991374843666,2.011341361215663,-0.04745046373074597,0.024046688349127657,0.046300358230418184,-0.4399338334278857,0.12583735640189955,0.34017239550889433,0.5340707511102618,1.5707963267948966
6.984604597091675,-0.005487767137223832,0.0027897139187529037,2.012336114237063,-0.05672978604576777,0.026236447874946518,0.05320989360383998,-0.48760875427027345,0.09333456106139613,0.3506574676688145,0.5654866776461596,1.5707963267948966
7.00470757484436,-0.006722946545957958,0.0033310014929156238,2.0134711056745616,-0.06693932532031806,0.027787864485508428,0.06032174274359166,-0.5329603879268341,0.0620008198096314,0.36040541079186944,0.5969026041820573,1.5707963267948966
7.024614334106445,-0.008314294825831625,0.004334644072189334,2.0153176280878173,-0.07395327333805862,0.03404014451540125,0.07191845241376342,-0.5856463878224629,0.006963705861495929,0.3852957642946785,0.5909333745485679,-0.2984614816744724
7.044723272323608,-0.009913870160591785,0.005013277280575318,2.0168346484795725,-0.08617110832798258,0.03364682202757249,0.07986208487015657,-0.6357014026239737,-0.04594300659992496,0.40884548537450166,0.5666165609502158,-1.2158406799176014
7.064668655395508,-0.01068749511974611,0.005482155446691187,2.017661425274538,-0.08994978430195448,0.03659244013708472,0.08396922620030733,-0.7363369654151233,-0.10438728372379823,0.40878957245460273,0.5980324874861136,1.5707963267948966
7.084739446640015,-0.012640227245428194,0.006189348980530692,2.019422547066904,-0.10564290968457968,0.03393998395380771,0.09214164075452642,-0.8321824327404344,-0.16046654809838484,0.4083959600017096,0.5666165609502158,-1.5707963267948966
7.104648590087891,-0.014600619703642114,0.007159332760843009,2.0211577454112266,-0.1146947678614995,0.03847117017725739,0.09567497283840085,-0.914689670840211,-0.21733553464653793,0.388968617183603,0.5980324874861136,1.5707963267948966
7.1248533725738525,-0.01817893262521891,0.008459962458744738,2.0241319018648154,-0.13452023975342436,0.03956767336550835,0.10534479929397937,-0.9382251458949217,-0.13612946745199675,0.3699366633336651,0.5666165609502158,-1.5707963267948966
7.144643545150757,-0.021058439132423105,0.00922934618812101,2.026311536985606,-0.15350138835310165,0.037630899142465826,0.11255664444720573,-0.95951892753273,-0.05806894246324123,0.351316098260479,0.5625388502229343,-0.20388553636407902
7.164657115936279,-0.024321679619138257,0.009975398796874452,2.0286317121312503,-0.1728862785543071,0.03722420693947184,0.11940016033427421,-0.9786049641065709,0.016885273399483963,0.33310309966864277,0.5538026252315045,-0.4368112495714893
7.184633731842041,-0.025701644192118928,0.01052412047312723,2.0298950481690228,-0.17435800159657913,0.04090598924444234,0.12413732952600133,-0.9557087705793399,0.12601248195402384,0.3157833061139666,0.5852185517674027,1.5707963267948966
7.204639196395874,-0.029378388704916058,0.01137449691314531,2.0324398158203927,-0.1932380786270247,0.044480704904418446,0.13028297148519494,-0.9321977037863377,0.23072843873371765,0.2988440090211702,0.5538026252315049,-1.5707963267948966
7.224727392196655,-0.03130513783909201,0.011621266302839637,2.0337941658324215,-0.20068912831700675,0.04137818573795949,0.13380976719659093,-0.8597742006697435,0.32514313115223636,0.2826923525522329,0.5805339225734714,1.3365648670983221
7.244550466537476,-0.03781824137695472,0.012627399437765368,2.0379038399867557,-0.23009565953925867,0.04085708843131043,0.1413510434326541,-0.8978578152577099,0.4086583144625269,0.2669012004135198,0.5491179960375732,-1.5707963267948966
7.264745473861694,-0.04260212530814799,0.013531655936873974,2.040783206035241,-0.24841038242197092,0.04983465963390318,0.14653410158041832,-0.9331531450646449,0.4884885394417485,0.25146319420705365,0.5805339225734709,1.5707963267948966
7.284704208374023,-0.04795750701061873,0.014055456801479856,2.043724194501365,-0.27220423652444314,0.04598066007148387,0.1507149155975751,-0.9763977321946512,0.5624753924822912,0.23670197171867302,0.5491179960375732,-1.5707963267948966
7.304980516433716,-0.05359960320172337,0.01509232452988538,2.046784865827529,-0.2921394807439795,0.05794122221993481,0.15530412490470635,-1.0166279027294793,0.6330089657445264,0.22227428476984226,0.5805339225734709,1.5707963267948966
7.324657440185547,-0.05661522634139625,0.015348529451223754,2.048373080060315,-0.3034933463750793,0.05460588399225714,0.1586209384847549,-1.024032021175932,0.6739202118956323,0.26123234797208433,0.5491179960375732,-1.5707963267948966
7.34461784362793,-0.06615838404603502,0.016938982749538988,2.0532911012733126,-0.33359904008034463,0.06533195142717652,0.16772541426717927,-1.0241478945939364,0.7204006130705906,0.2809481601613421,0.5805339225734709,1.5707963267948966
7.364588499069214,-0.0730351454491147,0.018392674039333038,2.056703059405092,-0.3540737146764119,0.08018369065548377,0.17353251304889175,-1.0231325301941774,0.7643550990840787,0.29958262850604295,0.6119498491093687,1.5707963267948966
7.384740352630615,-0.07664138683579855,0.018954960156610277,2.058478170108658,-0.3649644782589301,0.0805160200861739,0.1771678174287504,-1.0386259627863685,0.8235063155172795,0.28703453198056667,0.5805339225734709,-1.5707963267948966
7.404660940170288,-0.08414934453094747,0.020733768815532648,2.0620781077507337,-0.38587695117116594,0.09755160739653856,0.1827848470196675,-1.0523243818073935,0.8795354727450703,0.27470456000024024,0.6119498491093687,1.5707963267948966
7.4246790409088135,-0.09218042035875854,0.02244505847464711,2.0658228568515073,-0.40970027711921986,0.10523568748732552,0.18909144780318526,-1.0628443320355576,0.930113358287774,0.2609690553491363,0.613634370241356,0.084226056599368
7.444627523422241,-0.10503568051462037,0.025773746524869422,2.0716673194914277,-0.4441390610882762,0.1265694513842813,0.19842204383139442,-1.0740657125802526,0.9778016404924958,0.24330017871325915,0.6450502967772538,1.5707963267948966
7.464677333831787,-0.11413393750028629,0.028503733521150647,2.0756832647789714,-0.4657183560273282,0.146578788089579,0.20311507282308963,-1.0835817089481155,1.0226642227558085,0.2260764576752593,0.613634370241356,-1.5707963267948966
7.484626770019531,-0.11892166667984068,0.02982745920759155,2.0778068606088738,-0.4786959068971297,0.15173553489003075,0.207496254734303,-1.0832205461435336,1.062331807180659,0.2007349052705979,0.6450502967772538,1.5707963267948966
7.5052490234375,-0.13901175418856201,0.0364880291928314,2.086381894017887,-0.5234570933400992,0.1884757553607311,0.21813054521359287,-1.0293930274778027,1.1107098256485253,0.18431558836934897,0.648941229249588,0.19454662361670927
7.524657726287842,-0.14968321826588726,0.04048276414722254,2.090780293889797,-0.5435120287074156,0.21114919714513852,0.22165607376188382,-0.9762072845031525,1.156147603904991,0.16830505535156814,0.663028842709215,0.7043806729813529
7.5445404052734375,-0.15525549301649033,0.04256286990956242,2.0930773035908095,-0.5551913955907612,0.22063907665153853,0.2252731944053202,-0.8856621954234636,1.2018601234807453,0.15311997054390436,0.6361961463279271,-1.3416348190643967
7.5646772384643555,-0.16653052357937473,0.04721892560134971,2.0976123983202704,-0.5720169375321195,0.2451091946449824,0.22818693888556735,-0.7972448994686896,1.2446714140966242,0.13831800960577084,0.6676120728638253,1.5707963267948966
7.584643840789795,-0.17252531303204666,0.04963252536228094,2.099972263661558,-0.5869322250342778,0.2545351059069804,0.2311911294454549,-0.8085810225307786,1.214003529563231,0.10449912941331224,0.648431532241756,-0.9590270311034654
7.60454535484314,-0.19712885927411358,0.06071016170249055,2.1093968673734875,-0.6310022303853579,0.3011632344657511,0.237549490403691,-0.8163703392120241,1.152287563033617,0.08362610376803335,0.6798474587776537,1.5707963267948966
7.6247851848602295,-0.20991262388287277,0.06695983262261183,2.1141632252317026,-0.647395315084239,0.3236023402766415,0.23901900563810086,-0.8226960956519768,1.0918321980625272,0.06343902625047429,0.6500269121715667,-1.4910273303043509
7.644547939300537,-0.21662441154045997,0.07034491109407051,2.1165964699367312,-0.6606254041727325,0.33733787676663857,0.24063684428316912,-0.7748583297276348,1.076647636342011,0.05273841527170749,0.6814428387074649,1.5707963267948966
7.664767265319824,-0.2299887318106369,0.07730595958778161,2.121419055368214,-0.6756491428958694,0.35871461161441787,0.24158697793682077,-0.7276143063316817,1.0609395265510464,0.04232208830803296,0.6531187475778619,-1.4162045564801495
7.684644937515259,-0.23690136871098702,0.08118410260635102,2.123869793132151,-0.6854362704528129,0.3765382622317903,0.24276419255643783,-0.6229857707165805,1.1058571720300558,0.028645560347239345,0.6845346741137597,1.5707963267948966
7.704637289047241,-0.2651332180560949,0.09745154093698534,2.1336360047908385,-0.7180350826248062,0.4288518025179673,0.2445698321860375,-0.5720447184916556,1.1506021347410975,0.019507156701060104,0.6561350203710337,-1.4199826871363008
7.724629878997803,-0.279604960503735,0.10626153638919889,2.138530706113992,-0.7289712198909158,0.45228730916334925,0.24487066926265907,-0.5216620375071287,1.1924727240217314,0.010617853927521627,0.6875509469069314,1.5707963267948966
7.744664192199707,-0.29428538636575846,0.11554842642115869,2.143429662796541,-0.7389052840011805,0.47653180950634255,0.24499618990796815,-0.47183733793598037,1.2315080174282715,0.0019750858784474863,0.6561350203710337,-1.5707963267948966
7.764764308929443,-0.2946384207603881,0.11570478880568028,2.143434036993515,-0.7469605128271607,0.480619093725167,0.2449745753516718,-0.4087202157285013,1.2708765639134745,-0.0057992870133099115,0.6875509469069314,1.5707963267948966
7.784644603729248,-0.3098277357750017,0.12555905582788224,2.1483376960987934,-0.7603353376436978,0.5058633990017619,0.24497970888664777,-0.35617982382267976,1.3045751666727852,-0.013168847934922557,0.6561350203710337,-1.5707963267948966
7.8049376010894775,-0.34093355924515745,0.1467899217199116,2.158138827563458,-0.7841261035004745,0.5575761301241425,0.2446688036828592,-0.31985171694364023,1.3740252755438143,-0.020134526722718323,0.6875509469069314,1.5707963267948966
7.824589252471924,-0.356677653950258,0.15822072444784008,2.163027722235301,-0.7901638836399232,0.5857253314988206,0.24419810243286508,-0.28400668037549087,1.4403825580094187,-0.026902881384163246,0.6561350203710337,-1.5707963267948966
7.844583749771118,-0.3647595853794095,0.16413843673257553,2.165469685751457,-0.797534514083923,0.6003082081408772,0.24391504554719556,-0.276749814815101,1.5038724227940778,-0.0331047539329995,0.6811325814226388,1.2498780525802555
7.864690542221069,-0.38076511545467023,0.1764494583776976,2.1703409612031246,-0.8029925499892635,0.6309956291067352,0.24319242249695008,-0.26896694653706127,1.5643748618906284,-0.039127921632930635,0.649716654886741,-1.5707963267948966
7.884677886962891,-0.39704634458311205,0.18922692327250054,2.1752171641550513,-0.8115624655104257,0.6583692955648206,0.24292594974808623,-0.18626517177095814,1.5805388287266677,-0.044629608445626974,0.6775539986169505,1.391867186510476
7.904669761657715,-0.4133094340429931,0.20271138400300961,2.1800663985362023,-0.8144775037262947,0.690123302804072,0.24197968776620105,-0.10557183555175326,1.5944969659226635,-0.049969816662203716,0.6461380720810528,-1.5707963267948966
7.924714803695679,-0.42154304814733745,0.20958030374581152,2.1825015156279015,-0.8176919733186542,0.7034405474498634,0.24194928769195873,-0.07290799051498328,1.652067388486073,-0.05484418982561699,0.670960507749935,1.2411217834441102
7.944633722305298,-0.44627213770232343,0.23132746860974393,2.189755601700473,-0.8244503791032666,0.7505497106410237,0.24083997592383669,-0.059239063356027806,1.69827085093675,-0.0593937658097089,0.6395445812140368,-1.5707963267948966
7.96462869644165,-0.462772079690498,0.24668106528375378,2.194560226054984,-0.8254981149980445,0.784955188115195,0.2396077532272215,-0.045527697396642745,1.7418408263894694,-0.06380567976232011,0.6575343502790849,0.8994884532524061
7.984658241271973,-0.4794601832625633,0.2625916799979448,2.1993673383329555,-0.8304534160465583,0.8161199373143249,0.23901152017881885,-0.05696517641247623,1.7140253831534944,-0.06777158286038812,0.6261184237431872,-1.5707963267948966
8.004607915878296,-0.5044094401466881,0.28779875163449264,2.2065313103165147,-0.8321268687429204,0.8664611130095657,0.2376143502839231,-0.042816170955935096,1.7263346167408462,-0.07144166348587479,0.6487737081760656,1.1327642216439227
8.024636030197144,-0.5210595955355021,0.30547398757113375,2.211269070075484,-0.8328413778772578,0.9010985969177632,0.23614977532499615,-0.02862853953078289,1.7371698430831484,-0.07499676986871152,0.6173577816401679,-1.5707963267948966
8.044585943222046,-0.5293281548424,0.3145814440691226,2.2136410156689106,-0.8312601483226093,0.9186817030226933,0.23575365580108382,-0.025139140019741095,1.7202771914671868,-0.07817160305216711,0.642589011417201,1.261561488851659
8.064705848693848,-0.5459581232075307,0.3332979773419231,2.2183402479258127,-0.8317230747463654,0.9529133173673051,0.23415932775492948,-0.021055277213528845,1.702785312614378,-0.0812442610526224,0.6111730848813028,-1.5707963267948966
8.084669351577759,-0.5624712099940649,0.35277628106368003,2.2230186233157654,-0.8287487207604664,0.9889688829325345,0.23272991800080264,0.0021999788258281147,1.6774778247780437,-0.08390058519315025,0.6241134353057332,0.6470175212215157
8.104643821716309,-0.5790442049882637,0.3728894519353627,2.2276562688878583,-0.8284739895659441,1.0222628371943614,0.23102607886363347,0.025236703886677352,1.6518678439840548,-0.08646870391442497,0.5929050266926472,-1.5604204306542968
8.124729633331299,-0.5872460935331343,0.38330485656696245,2.2299640028683347,-0.8256373138828008,1.0416186757038874,0.23007553072593873,0.05943859910669532,1.6057778463305081,-0.10460317943327777,0.624320953228545,1.5707963267948966
8.144619464874268,-0.6119502273599449,0.4154493673676649,2.236827052107938,-0.8226167944169969,1.094512836957932,0.22701410322474566,0.08285948418259288,1.5677771391281254,-0.12159728432048093,0.5929050266926472,-1.5707963267948966
8.164704084396362,-0.6283844513211753,0.4376506351344406,2.2413419130320786,-0.8207289547088384,1.1254865401197978,0.22441742249344643,0.10585363798892254,1.5295574057966626,-0.13796741794181974,0.5885923883329731,-0.21563191798370518
8.184706687927246,-0.6365555763143662,0.44917418909727747,2.2435744740174646,-0.8187170615619549,1.146003371883792,0.22291053394272017,0.11239354256027444,1.495291372292093,-0.1370412194221006,0.5862645759409224,-0.1163906196025355
8.204941749572754,-0.6529069737705249,0.47239100855086286,2.2480053380761795,-0.8163989514377005,1.175562901570758,0.22017895107966126,0.11951313802714753,1.4605899917269498,-0.13611747377538136,0.5731741278894726,-0.6545224025724883
8.224653244018555,-0.669163240422067,0.4965519193336261,2.252396391555208,-0.8127540568453869,1.2134240940410794,0.21780761401337123,0.11185300182613855,1.422929425545111,-0.13496207278839698,0.5732360192246575,0.0030945667592430226
8.244558334350586,-0.6934195017101239,0.5338299838304379,2.25887342839876,-0.8069035920545825,1.2625146466268167,0.21386375238663183,0.14125981226773465,1.3882134638017094,-0.13376071753808885,0.5479932806005574,-1.2621369312050046
8.264772415161133,-0.7095273761759385,0.5593555845931705,2.263124030791879,-0.8037868347485169,1.2899283506476553,0.21120045140727028,0.17036573943641686,1.3530899518992516,-0.13257137075494213,0.5622592299234559,0.7132974661449243
8.284786224365234,-0.717470630037175,0.5725338615877249,2.265227835538337,-0.7994236846381657,1.3091533689185983,0.20980963485127488,0.1979860168099147,1.3190140710980094,-0.13144083315913754,0.535780895714653,-1.3239167104401428
8.304815292358398,-0.7334176797563318,0.5989784396360345,2.2693978149404246,-0.7951901918773345,1.3351894935785387,0.2071920407005144,0.22531463376913666,1.284531557981826,-0.13032022846175195,0.5509603759254191,0.7589740105383047
8.324683427810669,-0.7492321996052075,0.6262724649183273,2.2734965794153488,-0.789695015080104,1.3688457030778038,0.2039737883521721,0.22982726406957912,1.2469469915960698,-0.14450400550968606,0.5195444493895209,-1.5707963267948966
8.344584941864014,-0.7728175054804406,0.6680979536486288,2.2795450982094483,-0.783138452060598,1.4113171493636054,0.19964261167331934,0.17742095310013836,1.1771622614097137,-0.12483728502632475,0.5257864341786576,0.31209923945683116
8.364691495895386,-0.7884481627901294,0.6965551265893338,2.283514256312966,-0.7800938949677321,1.4341708470904,0.19733623930059033,0.1274356065173978,1.1083728702969673,-0.1059249521024804,0.5000439979720408,-1.287121810330838
8.384602069854736,-0.8039052821743481,0.7257635102261738,2.287408046461048,-0.7741249087591705,1.4637456086105856,0.1943422415164232,0.12363468714195865,1.0681810880473075,-0.10591229670290964,0.5129937757893548,0.6474888908656995
8.404618740081787,-0.819363264404214,0.755249383014338,2.2912737105469554,-0.7716831631893605,1.4847079563114989,0.19222426725742026,0.12067978022581981,1.0280669922381558,-0.10588224477014962,0.48157784925345704,-1.5707963267948966
8.424692630767822,-0.8269035586195764,0.7703637724557445,2.293159493379559,-0.7655507783061656,1.5006830970146101,0.19029915152665028,0.1255283482873023,0.9815693888469628,-0.10579953218299487,0.507857833597321,1.3139992171931958
8.44474983215332,-0.8496540117033079,0.8160365077397873,2.2987945748538907,-0.7572096449559143,1.53559810294195,0.18637863987816652,0.13724227290721505,0.9253941201924828,-0.10565288579504306,0.4764419070614232,-1.5707963267948966
8.464698314666748,-0.8647699683428224,0.8469298427746274,2.302501027578318,-0.754346515930937,1.5535507587372273,0.18426716981947847,0.1490931275499744,0.8700014983113342,-0.10549171193760047,0.46711965161965896,-0.4661127720882119
8.48463749885559,-0.8796713013174488,0.878430422403994,2.3061142842176885,-0.7475857795792906,1.5768251208429802,0.18093581055768457,0.1654679458945414,0.8126152417047413,-0.1052503353330302,0.4596484054317509,-0.37356230939540325
8.50462818145752,-0.8945888369427042,0.9101256666675057,2.3097119670700907,-0.7441135523776651,1.5925109849641408,0.17883332031010923,0.18173710450821037,0.7561189726961741,-0.10499664937726465,0.4500334848688028,-0.4807460281474052
8.524616241455078,-0.9019813298197595,0.9262486561879708,2.3114817511371033,-0.7410991733898534,1.6041982062927322,0.17744233917028956,0.19738398491981635,0.7096595362355177,-0.10473128580239567,0.45233229607343706,0.11494056023171328
8.544578313827515,-0.9241221059733793,0.9748757789989776,2.3167591895237853,-0.7350235613165192,1.6301661386793647,0.1743614535746389,0.20612876806504044,0.6554784387798238,-0.1044531607040853,0.4214908519393954,-1.5420722067020831
8.564674615859985,-0.9387807596405843,1.0076066285811782,2.3202255471155784,-0.7308120700485605,1.642741092580662,0.1722752733389795,0.21504930557908725,0.6021602462578501,-0.10416284282285906,0.44060958774506,0.9559367902832294
8.584659099578857,-0.9460700370403502,1.024205013362035,2.3219470100289588,-0.7283625231138204,1.6522464189657413,0.17132611778673743,0.22011667827961842,0.5477721184188621,-0.10388777623503831,0.40919366120916223,-1.5707963267948966
8.60494089126587,-0.9750074375723049,1.0909561191610748,2.328711889189454,-0.718773378747153,1.6791709832161317,0.1670330904247286,0.24615633288863256,0.5095880875193025,-0.1035712409561214,0.4088284414085628,-0.01826099002997239
8.624704122543335,-0.9893319578596611,1.124638929089268,2.3320318584612054,-0.7135931804097809,1.6889839458281066,0.1649649324030809,0.27179724709233155,0.4717689465726866,-0.10324254771740199,0.3907452358265431,-0.9041602791009851
8.644545316696167,-0.996446987916013,1.1416231559740178,2.33368397279003,-0.7105127056734029,1.6953195713662395,0.16417892398674208,0.29592884755020543,0.4366435624219156,-0.10293764858141684,0.4039767574195605,0.6615760796508718
8.664636611938477,-1.010596466014354,1.1756145486296177,2.3369469847131255,-0.7043558996398039,1.7037035569605217,0.16212332767434492,0.31969024110861544,0.4018023987844763,-0.10261984589092865,0.37256083088366276,-1.5707963267948966
8.68462085723877,-1.0246902275963108,1.2098530730371224,2.340187838658694,-0.6996586942062745,1.7134069742990923,0.16050492405382374,0.34199684108419837,0.36535604290725704,-0.1023223902600077,0.38994914662491764,0.8694157870627439
8.705679178237915,-1.0386135317301879,1.244191873095364,2.34337749317971,-0.6925984779341373,1.720352817930912,0.1584615653243376,0.3639692473020518,0.32929194821217567,-0.10201121030435804,0.3585332200890199,-1.5707963267948966
8.724652767181396,-1.0455910941170217,1.2614342652551944,2.344965020386792,-0.6908407371711235,1.7238690058428876,0.15766957605826518,0.3762071373558448,0.2878454656143322,-0.10171846686936328,0.3803492273143121,1.09080036126461
8.744644403457642,-1.073036816837007,1.3306601129721845,2.351196848412838,-0.6784013380442937,1.7359161890502413,0.1537587949572061,0.38808748290955386,0.24631420823511496,-0.10139235084401486,0.34893330077841433,-1.5707963267948966
8.764660835266113,-1.0865264373920747,1.3654249629723916,2.3542517682770785,-0.6705213376202672,1.7404325132672005,0.15173432471214132,0.39990142155794833,0.20542482351423078,-0.10105238042135493,0.3384481031110562,-0.5242598833679057
8.784652471542358,-1.086548745864975,1.3654133296111175,2.354252147948769,-0.6710247427923821,1.7395617207890914,0.1517538577125619,0.42075118957018925,0.17231500886397152,-0.10073160492231187,0.3518943917252675,0.6723144307105633
8.805475950241089,-1.0998837147749292,1.4002368383131643,2.3572671008755055,-0.6624036001803532,1.7426800231408515,0.14974255135178216,0.4413156167659112,0.13957710518821878,-0.10039669098021105,0.32047846518936973,-1.5707963267948966
8.824693441390991,-1.113121551702526,1.4351617483412409,2.3602523610392714,-0.6553661951693182,1.7462388362252177,0.14803382265566417,0.4633588324670857,0.10807549380699172,-0.10006613414961056,0.3397540959273373,0.9637815368983782
8.844560623168945,-1.1326351493862836,1.4876066358137938,2.3646564348929955,-0.6431004547251545,1.7494606929204,0.14526381843209346,0.47825321234668894,0.0805232412337744,-0.09971804480286417,0.30833816939143954,-1.5707963267948966
8.86467170715332,-1.1454005204223567,1.522610128523007,2.367541791570025,-0.633387370814012,1.7507974719564114,0.14327305690076678,0.4930366201201874,0.05319143403650865,-0.0993557592188026,0.3120970304379753,0.18794305232678887
8.884669065475464,-1.1517678991669371,1.5400978338925086,2.3689765800070672,-0.6300421181941634,1.7503034510848547,0.14247877781399249,0.499617008109507,0.01587842814278577,-0.09900631073423256,0.2987188506583234,-0.6689089889825972
8.906354427337646,-1.1766483500523783,1.6100964609840367,2.3746221913118912,-0.6118195499191335,1.749985031399768,0.13921136188785735,0.509399986669133,-0.009426226945336031,-0.09864842220908172,0.2824151497940002,-0.81518504321616
8.924594402313232,-1.188782207949225,1.6450925988570644,2.3773867134624993,-0.6015335704235949,1.7495450385016558,0.13724209523845782,0.5192007546206834,-0.034541437011404545,-0.09827580617780443,0.2870772003974831,0.23310253017414517
8.94461441040039,-1.1947918801634148,1.6625405795300894,2.3787785105395454,-0.5968226543269028,1.7476419043832225,0.1369576144790676,0.5259371606755194,-0.06032594380558617,-0.0979459538044463,0.2727775984325116,-0.7149800982485743
8.964832544326782,-1.206622693385679,1.6974796457594223,2.3814980964231496,-0.5862359917346668,1.746179589942302,0.1350021262570437,0.532739971171122,-0.08586452931929373,-0.09760024496543217,0.2751694754216687,0.11959384945785523
8.98462438583374,-1.2182575220736191,1.7323332914940626,2.384216558748116,-0.5760000720587362,1.7428846703030114,0.13400632185336625,0.526886167405416,-0.11581425073697993,-0.09729231011667303,0.2559750762448538,-0.9597199588407435
9.00469183921814,-1.2296725127801889,1.7671658471646154,2.3868772481030835,-0.5655169308857066,1.740272513992669,0.13206369670671103,0.5215063639550975,-0.1453291219449453,-0.09696739523322954,0.26522290385638714,0.4623913805766655
9.024643659591675,-1.2352955319414969,1.7845260085995607,2.388215577300513,-0.5601852186819085,1.7375350523388904,0.13173618259978884,0.5095716465085619,-0.17618946588942366,-0.09667636307918043,0.24519245052299965,-1.0015226666693744
9.044727087020874,-1.2518374354168151,1.836559599497402,2.392143179069423,-0.5438818643133928,1.7315482294603224,0.1293644166187447,0.5081368124811672,-0.21540300264520656,-0.09637572493473952,0.24808093839084355,0.14442439339219515
9.064702272415161,-1.262613528003592,1.8711449134283311,2.3947112131940242,-0.5337313128809762,1.7268553932074249,0.12744005749109819,0.5069611887339192,-0.2537342683746603,-0.09605723441675051,0.22895122562073,-0.9564856385056775
9.084612846374512,-1.2731142101833495,1.9056179536222995,2.3972675262971266,-0.5217954801807219,1.7212036030792377,0.12619207564990392,0.5030210129198064,-0.2938032846599817,-0.09575162073783047,0.23903711134967764,0.5042942864473821
9.104711532592773,-1.283449762516796,1.9399806427408337,2.399772238767107,-0.5117718395241915,1.714935006341066,0.1242802503942442,0.49939502662857177,-0.3328941761597867,-0.0954279113952814,0.21080357608836975,-1.4116767630653948
9.124665260314941,-1.2884926079815044,1.957126980171299,2.4010251210860925,-0.5053698658871085,1.7116809134427593,0.12375223686239892,0.497581352208117,-0.37003960599127106,-0.09512060973308349,0.24098189991173502,1.5089161911682636
9.14471983909607,-1.2985005966598873,1.9912841610816185,2.4034811631033843,-0.4954341641444429,1.7039164834255458,0.12185305009282803,0.4960326228979524,-0.40624801256895293,-0.09479504649037654,0.20956597337583727,-1.5707963267948966
9.164705753326416,-1.307751615748024,2.0236620924511435,2.4057816654688025,-0.48415071631276113,1.6980230941008094,0.12002270769018221,0.5009099494764885,-0.4241460809374799,-0.0944365764731831,0.21376700574147156,0.2100516182817147
9.184603452682495,-1.3220102261022326,2.074458104645831,2.4093282237139904,-0.46787479677759203,1.6864805921987787,0.11689278544322268,0.5149915250796102,-0.4321858214699954,-0.09401198956767097,0.18689596523357865,-1.3435520253946454
9.204713344573975,-1.3312637995791459,2.1081007365490865,2.411647306090317,-0.45743658578666613,1.677755347617017,0.11501691800463854,0.5287811021007847,-0.4403609189314367,-0.09357224910025512,0.20869286665100084,1.0898450708711094
9.22458815574646,-1.3402767493955507,2.1415647562001845,2.4139261562423635,-0.44617743514418523,1.6685444991605822,0.11303424447627877,0.5341363372082726,-0.4598506722965456,-0.09309535737070497,0.1772769401151031,-1.5707963267948966
9.244635105133057,-1.3490934696074899,2.174824371928346,2.4161643912536133,-0.4353618890124564,1.6586539241668008,0.11104341899474197,0.5517031005188132,-0.465581972043336,-0.09258882224504854,0.19399154933702567,0.8357304610961291
9.26461148262024,-1.357689219041355,2.2079039423694655,2.418366776281702,-0.4241560557850142,1.6492833799997,0.10919681507048429,0.5688027538875874,-0.4715038909605168,-0.09206944903768756,0.16257562280112792,-1.5707963267948966
9.284670114517212,-1.3619143534047595,2.224327332769033,2.419447384686346,-0.4188366991162024,1.6430590916769825,0.10810352358819972,0.5676215471790057,-0.49053224225622116,-0.09153519521397122,0.19386972840529504,1.564705280208356
9.304746627807617,-1.3701776320639223,2.2570891571951717,2.4215911843344227,-0.40749445500289166,1.6330610949774667,0.10627826186228859,0.5666350298148628,-0.509209077211265,-0.09098900591982523,0.16245380186939729,-1.5707963267948966
9.32463788986206,-1.3782506183480425,2.2895794226018555,2.423681550487016,-0.3970178198868241,1.620761348524356,0.10395471406455858,0.5658637970404404,-0.5631357304149988,-0.09038379220411714,0.16755027196580796,0.25482350482053384
9.344637393951416,-1.3899119352212967,2.337944659717434,2.426740459592467,-0.3801450156953797,1.6037742096033052,0.1007627668655868,0.5683234977766964,-0.5716531259159426,-0.08970587682726544,0.14179932217191515,-1.2875474896946404
9.36463451385498,-1.397401010271397,2.36990524575712,2.428737819327562,-0.3687545178049761,1.592256023559601,0.09897549153703582,0.5707149588601357,-0.5801643471710995,-0.08902041168066503,0.16397381070532857,1.1087244266706708
9.384635210037231,-1.401054137918969,2.385804533896686,2.4297225049119304,-0.36270860067444105,1.5864999777887063,0.09806563062819883,0.5907923043094339,-0.5908561394868502,-0.08833811940123087,0.13255788416943082,-1.5707963267948966
9.405685663223267,-1.4151044779872926,2.4487816940406586,2.4335682326215586,-0.3394202728351343,1.5624182925321293,0.09437292880622751,0.601700270061229,-0.601293026328332,-0.08758056137929698,0.14593877643098185,0.6690446130775518
9.42462706565857,-1.4217718352661424,2.4799091121332757,2.43543822584058,-0.32728036479378975,1.5502891694986785,0.09262893497756265,0.6122274175077356,-0.6115972047837334,-0.08681799923432809,0.11634283636985465,-1.47979700305636
9.444581747055054,-1.425037011322543,2.4953459447838084,2.4363621144040435,-0.3217914992926957,1.5430584565959955,0.09182592797081958,0.6167760475264515,-0.619635575537677,-0.086067726493106,0.1477587629057524,1.5707963267948966
9.464683771133423,-1.4313491911705984,2.5260826532456333,2.438181469684888,-0.30941187685239485,1.5305857510180418,0.09011211752721636,0.6211586747386669,-0.6276271374033969,-0.08531250475139965,0.11634283636985465,-1.5707963267948966
9.484647274017334,-1.434446700611469,2.5413204215682144,2.4390716677833137,-0.30413838968601653,1.5232098266850722,0.08901985190142113,0.6250963071675406,-0.6323462574633552,-0.08454970403210936,0.1328771012665979,0.8267132448371628
9.504633903503418,-1.4404041942201438,2.5716578314180647,2.4408352059475953,-0.291598350698393,1.5105152403662974,0.08733652137952953,0.6288824781044828,-0.6371216103204493,-0.0837826503930704,0.10146117473070015,-1.5707963267948966
9.52468204498291,-1.4461517681284588,2.60169002417194,2.4425470878725277,-0.2799908706999753,1.496437315047015,0.08528822562702283,0.6302727958339673,-0.6447746371639348,-0.08297450817402137,0.13070677933782227,1.4622802303561055
9.544560194015503,-1.4542809791542408,2.6462612734309667,2.445061318679127,-0.26140585754845763,1.476098228833066,0.08259022717267096,0.6340068596440067,-0.65645147697308,-0.0821181015492065,0.09929085280192451,-1.5707963267948966
9.564660787582397,-1.4593820557980874,2.675651180754964,2.4466967567479845,-0.2486900123701972,1.4628543464824204,0.08095643781935338,0.6375452383056481,-0.6678986334343919,-0.08126067130534557,0.10637030947810633,0.35397283380909084
9.584620952606201,-1.4642400457574265,2.7047340861908364,2.4482845152165353,-0.23627898376663103,1.4483124257700526,0.07899930940409916,0.6319382178080682,-0.6928485166089025,-0.08036937007693663,0.08658094097956015,-0.9894684249273089
9.605367660522461,-1.4710471148263302,2.747862279970458,2.450624454223196,-0.21742239183952367,1.427094235353552,0.07677524606037935,0.627842396236872,-0.7177979184720733,-0.07945852812504269,0.09737752452230541,0.5398291771372632
9.624557971954346,-1.4752702648892861,2.7762589799519515,2.4521441281062244,-0.204906110698624,1.4124951377093593,0.07519517465799619,0.6237935188732723,-0.7419855830961621,-0.07854880469084084,0.07314429442222892,-1.2116615050038249
9.644665956497192,-1.4772822399892245,2.7903521720723505,2.4529040618642144,-0.19844566764154054,1.4050423154695821,0.07476442190109506,0.6286455994258692,-0.7671182091075012,-0.07767840331193597,0.10023817037655469,1.3546937977162887
9.66494369506836,-1.4811251147335902,2.8182979597474636,2.4543838726337004,-0.18582656373859996,1.3894553735124926,0.07321955537190108,0.6332185770142365,-0.7914419180688448,-0.07680830736401155,0.06882224384065694,-1.5707963267948966
9.684701681137085,-1.48470029790577,2.845995814462798,2.455838391586537,-0.17275128777044513,1.375227310674391,0.07173823231922581,0.642444843322684,-0.8089280031598401,-0.07593087793491356,0.08611303103032242,0.864539359483274
9.705058097839355,-1.489595018661065,2.8869412378727035,2.4579568705058725,-0.15339856598111692,1.3523963346165462,0.0695043487739571,0.6593253214226289,-0.8140180771185371,-0.07502551329453357,0.054697104494424664,-1.5707963267948966
9.724746942520142,-1.4925300344565975,2.9138260286441446,2.4593320126421134,-0.140049068430484,1.3360662438494337,0.0680128764209606,0.6755090046108546,-0.8189677028243095,-0.07412204311644638,0.08090105637095357,1.3101975938264454
9.744571208953857,-1.493912158742522,2.9271761658194757,2.460008918261258,-0.13363745302436408,1.328627374970599,0.06728040129223845,0.6907089645312781,-0.8266434849484562,-0.07323579909630804,0.04948512983505582,-1.5707963267948966
9.76463508605957,-1.496445788193534,2.9535828862508433,2.461339938121186,-0.11967718901066064,1.312019970693116,0.0658245328819689,0.7052000334014346,-0.8340527766353474,-0.07235134574993117,0.0737302347614901,1.212255246321714
9.784676551818848,-1.4976499529028755,2.9666740282629043,2.461991390881206,-0.11372824512478244,1.3039085991442363,0.06501646442591359,0.7201196942640027,-0.8458402790831685,-0.07147749329079714,0.042314308225592345,-1.5707963267948966
9.80464506149292,-1.4997795365640625,2.992582267175312,2.463277482833598,-0.0991828737538438,1.286877386175035,0.06359563733946007,0.7342940274695908,-0.8572121336173169,-0.07060553647740637,0.0693881857797991,1.353693877710338
9.82456088066101,-1.5017067980884429,3.018166895626374,2.464530956505784,-0.08662828521763496,1.2701967012039712,0.06207536790423563,0.751003530600968,-0.8594427844347111,-0.0697177391647295,0.03797225924390135,-1.5707963267948966
9.844569206237793,-1.5040298830139205,3.0558996969357755,2.4663575631394044,-0.0659841778053464,1.244794061978516,0.05986207112147649,0.7365568889042194,-0.8587027834681251,-0.06879455443726189,0.0526646693792574,0.7346205067678024
9.864559173583984,-1.505203199541537,3.0806238883913815,2.4675411069947595,-0.0513943817618243,1.2276276460583966,0.058495378223350505,0.72248477488434,-0.8579340459085432,-0.06787541224794887,0.02577351594559385,-1.3445576716831775
9.884636163711548,-1.5057152813641,3.0928591475555347,2.468122804983491,-0.04490850220655688,1.21903051512441,0.05786231599174017,0.7425719476600495,-0.8628936373207222,-0.06697812439857641,0.05520882627654666,1.4717655165476407
9.904927492141724,-1.5067341081692867,3.129032644514133,2.4698297331075536,-0.022622436533948274,1.1928932046207874,0.055871323830418256,0.7660258347272209,-0.8601533917697495,-0.06605617646143215,0.02379289974064891,-1.5707963267948966
9.924728155136108,-1.5070318458487233,3.1527186602023365,2.470934009575886,-0.007076992148249296,1.1757174709804505,0.054559380404217,0.7883278597546408,-0.857421361507108,-0.06513895651061946,0.03608092849429401,0.6144014376822549
9.944562911987305,-1.5070541433456486,3.1760305502700024,2.47200137365925,0.00777355904216753,1.15777757995668,0.05303236586169717,0.8090949068603577,-0.8533958107033401,-0.06420266708054467,0.012898796724358341,-1.1591065884967833
9.964705228805542,-1.506735521961441,3.199015687879351,2.4730492425776824,0.024154259387551016,1.1407493865429732,0.05175762796000199,0.8287991389597704,-0.8494341325509553,-0.06327207379600308,0.03248208014351617,0.9791641709578913
9.984649896621704,-1.506508901881075,3.2103490014399294,2.4735710902421517,0.031047398492275793,1.1314458534588068,0.051348084797204804,0.8572187254325805,-0.8365641428997426,-0.062376664431321685,0.0049740298535807526,-1.3754025144967708
10.004659414291382,-1.50571468308127,3.2328114430771007,2.474585636050263,0.04846471778059268,1.1148398388983545,0.05010946410765661,0.8842898994230254,-0.8241054720547771,-0.06148623668320768,0.029239453739978494,1.213271194319887
10.024655818939209,-1.504704551748991,3.2548725392097877,2.475586784267889,0.06287142302392741,1.096628603436599,0.04916087246277332,0.9062547650703564,-0.8113781188670335,-0.06060991244863447,-0.00217647279591926,-1.5707963267948966
10.044605255126953,-1.5025074498403523,3.2873461660169463,2.47703622414115,0.08733806083863856,1.0708228513093283,0.04738028982697175,0.9086270118248642,-0.7790518074914007,-0.05971292902682482,0.01624405845879151,0.9210265627355385
10.064671039581299,-1.5005788229520287,3.3086089067008557,2.477971946864635,0.10553134563549013,1.055554907106997,0.046194953383831436,0.9106423832783825,-0.7479445526454334,-0.05882167052372408,-0.013387258314160988,-1.481565838647625
10.084587574005127,-1.4983816377762866,3.3294462069612,2.4788851842234094,0.12157353499410092,1.0375806566496402,0.045058118638003346,0.9182486276073835,-0.7198770605986907,-0.057930063377102194,0.011504125918072372,1.244569211611668
10.105252981185913,-1.4957830207220684,3.349991182180563,2.4797724968491353,0.13946454668175956,1.0213131584013877,0.04382900435698083,0.9262468154715321,-0.6903088327678603,-0.057035532527360974,-0.01991180061782538,-1.5707963267948966
10.12463641166687,-1.4928079764043227,3.3702812963347175,2.4806377291430954,0.1580646031081214,1.0077929269274237,0.04269718533613017,0.9336623456901102,-0.6619076192078113,-0.05614744342754176,0.0003377189985052098,1.0124759808165296
10.144577026367188,-1.489487322248728,3.390116902112602,2.481468126624313,0.17614579068558703,0.9901160232288048,0.04127844521297122,0.9410476993265846,-0.6276733799788321,-0.055238686415719315,-0.030782442829736745,-1.5560080914120977
10.165224313735962,-1.485775733333786,3.409795900381943,2.4822827080028107,0.1950358024367472,0.9778932723672998,0.04018269701272608,0.9478583132663744,-0.5948324937974213,-0.054337373465659394,-0.006950185045037305,1.191612889234972
10.184621572494507,-1.4817044733936735,3.4290351146225735,2.4830656458047224,0.21365934768620032,0.9610589008035595,0.03884583688921862,0.9642465503734334,-0.5866017350808519,-0.053420148219351836,-0.03836611158093506,-1.5707963267948966
10.204581499099731,-1.4748758920742233,3.457487692376794,2.4841986474164286,0.24228504963403355,0.9403550204634108,0.03701511349505016,0.9811843405732987,-0.5743294429721904,-0.05247115282771446,-0.02428025835075509,0.7042926615089984
10.224605321884155,-1.4698328765491384,3.4761807183194167,2.4849285182441982,0.2620695336582443,0.9289867024386967,0.035975100754805915,0.9970938012382423,-0.5625907409417168,-0.051531710367577505,-0.04885974272226923,-1.2289742185757069
10.244543552398682,-1.467178377987441,3.4853661186140643,2.4852872561672714,0.2716539315687632,0.9213733212614549,0.03553028462481006,1.0049823093394201,-0.5477922410002867,-0.05062199984469727,-0.029410053254677493,0.9724844733795868
10.264554023742676,-1.4615438135711063,3.503684980393113,2.485987797658837,0.29182637128651295,0.9105600044513292,0.03452686702586809,1.0121408447920124,-0.5336477624091281,-0.04972125107598434,-0.0593870336506539,-1.4988490197988202
10.284664630889893,-1.4585987708361172,3.5127045049589545,2.4863356816755537,0.30132953406577856,0.9036743488675892,0.034177862373241955,1.016019945412158,-0.5217386126798493,-0.04885384614839893,-0.03532052194253765,1.2033255854058122
10.30467414855957,-1.4523687484436725,3.5306744103273378,2.4870095255683253,0.32168358066299624,0.8933540330784161,0.03320939076805239,1.0192827392601307,-0.510384963055322,-0.04799468649522031,-0.0667364484784354,-1.5707963267948966
10.324674606323242,-1.4467702398702158,3.5457172819109597,2.4875668309850596,0.3386844046034926,0.8830315610282046,0.03237715574074275,1.027364806352972,-0.4937561338662909,-0.04714271398776569,-0.049314424768847065,0.8711011854794171
10.344574451446533,-1.4361461956004804,3.5719429337950683,2.4885124899311597,0.3696604448550701,0.8671320416529696,0.030858098127306215,1.040008706737048,-0.47812047820920084,-0.046269293807789116,-0.08073035130474482,-1.5707963267948966
10.364631175994873,-1.4285441900703848,3.589190956224906,2.4891204557994775,0.3905790582010988,0.8577198788241093,0.029941369224563825,1.0516939384639945,-0.4632170760460034,-0.045405137146368485,-0.06585629861345366,0.7437026345645581
10.384629487991333,-1.424581675015152,3.5977125572935353,2.489417488284367,0.40122189535766906,0.8522874939517816,0.029473899781884996,1.0527818406256653,-0.4512158984982849,-0.0445636500867862,-0.08559531996870895,-0.9869510677627646
10.404942750930786,-1.4163466372855222,3.6146688338072406,2.4899981092054673,0.4222835698171453,0.843378147327683,0.028590967724638414,1.053289649426741,-0.43981879649610595,-0.043731030520655106,-0.07984220308084433,0.2876558443932309
10.424652576446533,-1.4076907620859176,3.63139821365045,2.4905674340750816,0.4434018134287177,0.8334676688550202,0.027922666242338613,1.0545972838765625,-0.4281406899385344,-0.04291541583572694,-0.09733134856928105,-0.874457274421836
10.44457459449768,-1.393898927389034,3.656189589353467,2.4914004735431776,0.4754731667078996,0.8201689452875669,0.027067794103270176,1.0510441868151494,-0.4172936381830868,-0.04211483004777905,-0.10076595043633674,-0.17173009335278433
10.464580297470093,-1.384179512335067,3.6725102034651074,2.49193345941305,0.49645514842524363,0.8119266793422397,0.02623343361369898,1.047087216517201,-0.40702947210352963,-0.04132261054199205,-0.11026238071112804,-0.47482151373956505
10.484633445739746,-1.3791320782083978,3.6806028987295183,2.4922116782265977,0.5077925063569194,0.8077637624256191,0.02634906921064186,1.0425862265146184,-0.39999759927416867,-0.040585464867597565,-0.10867797453161065,0.07922030897586918
10.505037307739258,-1.3579133493384805,3.712590836228012,2.49326325533739,0.5512301289598364,0.7917719538469897,0.02548165847626247,1.0286438191787284,-0.39880580663793824,-0.03986542445435467,-0.13546821330001757,-1.3395119384203458
10.524658918380737,-1.3466839477162402,3.7283465805089926,2.493764963097657,0.5716635441926643,0.7838055762886226,0.024691495887733433,1.0146971247502912,-0.3978751272034734,-0.03915192303778298,-0.12600732056778563,0.473044636611597
10.544673681259155,-1.3408605257405102,3.7361831111512163,2.4940216953972714,0.5833027371066813,0.7803727899966052,0.024629653607164154,0.9995439554792375,-0.3993851588249692,-0.03847692277676469,-0.1403672402674485,-0.7179959849831441
10.564674139022827,-1.3289955699208662,3.751710579697426,2.4945066378043133,0.6031425012519501,0.7723683958659808,0.023866818396272874,0.984440889770335,-0.4010857302182969,-0.03780753292973493,-0.14123485910790645,-0.043380942022896996
10.584602355957031,-1.3228373244474803,3.7594478261560695,2.494752702401071,0.6151132443106603,0.7693626535999917,0.023764223641329792,0.9726704415513604,-0.3991409257354155,-0.03717120485370763,-0.14716217358616435,-0.29636572391289473
10.604629516601562,-1.310341312471487,3.7747553650163206,2.4952205948122343,0.6344485659068823,0.7613966719901123,0.02302712239690175,0.9608542598132057,-0.3975089758843209,-0.036539728318834425,-0.15483163339132355,-0.38347299025796033
10.624672174453735,-1.2973181264664482,3.7899723119198656,2.495690324340255,0.6571148341945606,0.7551743276514645,0.02271187113445527,0.9489401844545436,-0.3971154418165193,-0.035932851348450597,-0.16170473416696218,-0.3436550387819315
10.644649267196655,-1.2839868399575904,3.804996389378039,2.4961374154347475,0.6759738416072832,0.7472339156079425,0.021999246808964524,0.9369477018615204,-0.3969661443510787,-0.03533030320445566,-0.16862881574717825,-0.3462040790108034
10.664697408676147,-1.2701435109984593,3.8199320892749276,2.496587645006824,0.6980081307228186,0.7410624256557966,0.021734531019279812,0.9255027622545449,-0.39577001008060647,-0.0347532901316606,-0.17598774539958528,-0.36794648262035157
10.684642553329468,-1.2487048953655027,3.8420303411196293,2.497235748313104,0.728002855731416,0.7304736145977563,0.02102977603303662,0.9146449258874809,-0.3935812330199286,-0.03418246521908211,-0.18887739023439076,-0.644482241740274
10.704956769943237,-1.2263838745947822,3.863809241248574,2.4978610792345077,0.7573175300128997,0.7198548922686766,0.020278797799720187,0.9044588114990526,-0.39360884910271826,-0.03361386092480252,-0.19746386931048532,-0.42932395380472776
10.724725484848022,-1.2110573180068782,3.8781276022007862,2.498259970133824,0.7753037298753507,0.711980227383101,0.01961217471180483,0.8941391949731365,-0.3939014490652274,-0.03304908713047417,-0.20305169163648484,-0.27939111629997626
10.744621515274048,-1.2032031105308871,3.885268035519449,2.4984614161678085,0.7857350670804514,0.7091676896305984,0.01948639224154046,0.8824493133545538,-0.3969452346863152,-0.0325086099880889,-0.20495822724132973,-0.09532678024224417
10.764663934707642,-1.187312703174942,3.899371788896047,2.498844678155738,0.8032664020153011,0.7011969402438292,0.018841597020903766,0.8706694105119922,-0.4001575161817233,-0.031971469368942025,-0.21544153998267435,-0.524165637067231
10.784597873687744,-1.1709886989169729,3.913379981866777,2.4992261652198002,0.8226656831692787,0.694776246811321,0.018477515037221462,0.8580383137826672,-0.40471021670819757,-0.03144777331417656,-0.21964675693713742,-0.2102608477231538
10.804783821105957,-1.1543646227660613,3.927194255669567,2.4995894607210007,0.8396996226228045,0.6866355872131664,0.01785377019918956,0.8453455659822514,-0.4093740500064176,-0.03092723867446351,-0.2283500604326445,-0.43516517477535377
10.8246328830719,-1.145876529061211,3.934085778937811,2.4997732684905003,0.8494175013511763,0.6838426352966128,0.017744040513435713,0.8322706516878233,-0.4096833846105533,-0.030429051357952017,-0.2278354827743394,0.02572888291525466
10.844616174697876,-1.1199680355250887,3.954463090840579,2.5002981419319896,0.8757506072233935,0.6728145826417666,0.01701400250269493,0.8216030772282843,-0.4157028809990797,-0.02992742321492649,-0.24561477083796568,-0.8889644031813138
10.864613056182861,-1.1022894220388835,3.967835838488234,2.500632469790581,0.8920746444936599,0.6644399759698216,0.016420445529852976,0.8107740715755157,-0.42176469899912034,-0.029428771463536414,-0.24449007081073404,0.05623500136158199
10.884575843811035,-1.0842272579425798,3.9811060204204005,2.500960726927941,0.9095835955412109,0.6576911379304969,0.0159708124995854,0.7945920941273915,-0.41692197834130956,-0.028934473271612412,-0.2566681942469833,-0.6089061718124622
10.905084371566772,-1.0658582838547925,3.994198755598212,2.5012766604477648,0.9260158758835934,0.6501403573804219,0.01547214746935542,0.7851784550092635,-0.4097519964321396,-0.028444495079450877,-0.2593731737842959,-0.13524897686563175
10.924647331237793,-1.0471815667536821,4.007120062717457,2.5015804470075715,0.9416238884742564,0.6420124162650203,0.014908131380922613,0.7755947945244348,-0.40313334911595056,-0.02795763441779753,-0.26875871142597996,-0.46927688208420193
10.944623708724976,-1.028150789907948,4.019912039709115,2.5018792600785216,0.9581195454779036,0.6347545901807182,0.014512264993930891,0.7685286851085832,-0.3940606006269039,-0.027477117183908224,-0.2733709829949329,-0.23061357844764707
10.964872598648071,-1.00883517659597,4.032528892020274,2.502164041831768,0.9734174168493889,0.6269587394583962,0.013967501537810926,0.7612181032845807,-0.38563089330024,-0.02699975525436501,-0.28122750370450733,-0.39282603547872164
10.984609842300415,-0.9990466979651839,4.038779547730046,2.5023069005322127,0.9814273896647133,0.6232118097894848,0.013832715322560902,0.7570675504579594,-0.37061508736343524,-0.02653984911750593,-0.2813106080288126,-0.004155216215262492
11.004663467407227,-0.9792670318063447,4.051170619063529,2.5025782773868688,0.9965241645647559,0.6159425216770473,0.013306493665173018,0.752549159359645,-0.35645545983155047,-0.02608279270986847,-0.2920987590849289,-0.5394075528058151
11.024702310562134,-0.9591768433352195,4.063380074465134,2.502845838907663,1.011675991837288,0.6078749324584733,0.01295292566379267,0.7437259903292085,-0.3456386835514331,-0.025632259478662805,-0.2957044109114073,-0.18028259132392144
11.044568061828613,-0.9181247281914007,4.087358379504358,2.503348846240447,1.0410593983217697,0.5926987831336848,0.012070623037818761,0.7336689818249434,-0.32898610917928134,-0.025165486867264133,-0.31475369534018505,-0.9524642214388868
11.064642667770386,-0.8971574849964917,4.099147621129784,2.503585256545915,1.0556308595541197,0.5862777613371378,0.011571951676363462,0.7234505617854184,-0.31327132134780505,-0.024702236749007907,-0.31215528978635465,0.12992027769151981
11.084641933441162,-0.886580460759337,4.104957384355571,2.5036990241147214,1.0621920638240396,0.5821593402853505,0.011298301067293338,0.6957673755851,-0.30335473634492327,-0.024246296527122947,-0.31927084210538936,-0.3557776159517356
11.104641914367676,-0.8651992891482888,4.116540529155741,2.5039201710963503,1.075834312100985,0.5761860548705819,0.010817905132947059,0.6685317650411937,-0.2940800464609211,-0.02379388536673392,-0.32450557759629906,-0.2617367745454846
11.124607801437378,-0.8544021165749683,4.122237497563602,2.5040265854993597,1.0825899538412445,0.5718697526109262,0.010570857316918422,0.65495046901263,-0.2892509491153374,-0.023349762963136175,-0.32636114328562504,-0.09277828446629943
11.144556283950806,-0.8215912110276531,4.139216150845833,2.5043330641402517,1.1032525858575317,0.5619302400418749,0.009869616830674426,0.6453569117262842,-0.2820962315679102,-0.02289424756220915,-0.3404675916640767,-0.7053224189225826
11.1646888256073,-0.7993977347697293,4.150398783173955,2.504525907794291,1.116062578307757,0.556354831986848,0.009416253575995698,0.635618482505094,-0.27554432272222623,-0.022442746678019584,-0.3407401495942337,-0.013627896507850679
11.184665203094482,-0.7881785417540466,4.155914500254683,2.5046179825335124,1.1230605301513035,0.5526877547546514,0.009167051534839077,0.6252378186223826,-0.27111665350316627,-0.021999193379331598,-0.3457971914368949,-0.25285209213306015
11.204642295837402,-0.7655929812909994,4.166914301727288,2.504796953096545,1.135460538107054,0.5473054569004039,0.008731470001087607,0.614744457377402,-0.2671972098754576,-0.021559623515553215,-0.3520410739394513,-0.3121941251278182
11.224595546722412,-0.7427349684107772,4.177763928215751,2.504968142386466,1.1482427449392594,0.5409311509118958,0.008333762684830966,0.602200123151313,-0.2662483213987339,-0.021120606370789843,-0.3578367201677035,-0.2897823114126119
11.244726657867432,-0.7080119706040946,4.193855541241168,2.5052110603648416,1.1662697854082196,0.532535070202499,0.007774969355408262,0.5825240321572264,-0.26137640181601873,-0.02067690493642821,-0.3684080990016745,-0.5285689416985484
11.264610052108765,-0.6845713715229784,4.20445426716068,2.5053624537269856,1.1777252224974835,0.5273520982956359,0.007365830931207078,0.5630539596822545,-0.2570033152192366,-0.02023768309053069,-0.3707871619181926,-0.11895314582590633
11.284641981124878,-0.6727627031733265,4.209706626576042,2.5054375679047167,1.1832523425417993,0.5246132554831758,0.007232379545064028,0.5382698844680561,-0.25007509417583035,-0.019812934104445346,-0.37393746190248844,-0.15751499921479173
11.304553031921387,-0.6369921085750148,4.22532350308515,2.505646972590109,1.2000804699760872,0.5169444929850123,0.006681355034013385,0.5107418682559172,-0.23934780408218648,-0.019382180915791834,-0.38591679423317604,-0.5989666165343799
11.324695587158203,-0.612890161428833,4.235615202494816,2.5057767517428955,1.2100241209702198,0.5122588074281214,0.006297980856169481,0.48370469863071985,-0.2293398042775495,-0.018955997231372618,-0.3870533329243848,-0.05682693456043886
11.344543933868408,-0.5885288878596416,4.245797752030444,2.5059000778246134,1.221087125591317,0.5073392272533972,0.005944989616221711,0.45007594693760616,-0.21566158997032414,-0.018531447991811705,-0.39563500489202896,-0.4290835983822072
11.364647626876831,-0.5640193356456147,4.25590227354966,2.506015299395191,1.2297584253925764,0.503155684852642,0.005578566918185281,0.4171747053992608,-0.20283334058042574,-0.01811160468630767,-0.39875750437211455,-0.15612497400427916
11.384655952453613,-0.539247323650444,4.265893463970309,2.5061235247980935,1.240022264159569,0.49850635225394385,0.005226491469020395,0.3604690927189255,-0.1759321559318852,-0.017692789996707835,-0.4058650402224666,-0.35537679251760323
11.404550313949585,-0.5017982412853979,4.280732443329056,2.5062723529529176,1.2529267478325739,0.492142271808826,0.004697559071357626,0.30941330862082034,-0.17580594691312454,-0.01726712867658985,-0.4144600384998358,-0.4297499138684602
11.42471981048584,-0.47668116354585066,4.290540124809872,2.5063628788240084,1.2586150903848319,0.48862555319423595,0.004356429452333014,0.2596323787090882,-0.17590281452882828,-0.016846703886797838,-0.4170979123453016,-0.1318936922732883
11.444709539413452,-0.45130175330943256,4.300236456047716,2.506445345242081,1.2675602770650434,0.48418822396068256,0.0039897519072981625,0.2324112669890577,-0.17430002230605485,-0.01642593429375296,-0.42437173097858505,-0.36369093166417343
11.464552879333496,-0.4259058476539953,4.309885442048327,2.506521882873409,1.2719417218856346,0.48071403397176476,0.003665395719522271,0.20584118148311834,-0.1732025278974293,-0.01601058559568581,-0.42777151442129346,-0.16998917213542075
11.484647274017334,-0.41306983132919406,4.314681328782779,2.5065571551696033,1.276774009409054,0.4789308014387217,0.003495274374242663,0.18427159612160066,-0.17467961803877616,-0.01560571644487442,-0.42995553678833165,-0.10920111835190927
11.50457763671875,-0.3874440395759689,4.32423012849786,2.506624117594483,1.282057773246081,0.4755345541864239,0.003192816461037507,0.16410507627979257,-0.18539437002295603,-0.015204973892757854,-0.43686620596628956,-0.34553345889789533
11.524565696716309,-0.3617713850731567,4.333703023822182,2.5066849593804523,1.2851419505127772,0.47171909233189213,0.0028926803146988073,0.1443870496475291,-0.19616010217106022,-0.01480951974110398,-0.4405166878539437,-0.18252409438270778
11.544652462005615,-0.3359439246983533,4.343139683793125,2.506741577306885,1.2901170538213904,0.4688222888747789,0.002649479507360155,0.12304177703505556,-0.20805540583358376,-0.014419690375452831,-0.44631765208393714,-0.29004821149967164
11.564679861068726,-0.3101183734648575,4.352473725997555,2.5067917086840903,1.292368571076424,0.46454231656653505,0.002364940092103487,0.10219216235006325,-0.21993987801887324,-0.014035126205512753,-0.450788719869454,-0.22355338927584345
11.584606885910034,-0.2841993707100421,4.361799635816999,2.5068406608852465,1.2953824750868075,0.462277570987859,0.002201757084482762,0.07030632822251512,-0.20806225816015309,-0.01366052865549773,-0.4556831147595162,-0.24471974450310796
11.604564428329468,-0.25825973805327546,4.371034251912929,2.506883988623938,1.2973220230906723,0.4591967692682167,0.0019989637110952247,0.060838605225973695,-0.19807661564361018,-0.013294023386393286,-0.46042292185211897,-0.23699035463013995
11.62459397315979,-0.23230175730513344,4.38017919815524,2.5069213332773463,1.2984447425493462,0.45532851032597793,0.0017367066724662914,0.05144585710130983,-0.18887982008834492,-0.012932510111923479,-0.4654151411184748,-0.2496109633177923
11.644550800323486,-0.20628531414724405,4.389289929779016,2.50695877379575,1.3001937266011938,0.4526660943199705,0.0016130733815170706,0.03812397022070712,-0.16806534150713637,-0.012581952015348312,-0.4699789168243531,-0.22818878529391462
11.664668083190918,-0.18027469307486535,4.398310967231721,2.5069885420041382,1.3008246319450778,0.44950310670459453,0.0013649000380767209,0.02499934322315599,-0.14842835206757513,-0.012236177299642593,-0.47486507252169297,-0.24430778486699278
11.68471074104309,-0.1672689270470984,4.402793589389057,2.507005064992422,1.3007931768810372,0.44802510487947345,0.0013453599276298763,0.010309691466970698,-0.12508318757362738,-0.011906473080309855,-0.4754830192112114,-0.030897334475921134
11.704681634902954,-0.14125196910958757,4.411730566377781,2.507029612656089,1.3008544354334994,0.4457460981613934,0.0011104907608258253,-0.00414476511482252,-0.10303164916781785,-0.011581176155295504,-0.48274876703950875,-0.3632873914148682
11.724631547927856,-0.11525472352991006,4.42055161949008,2.507054382643774,1.300173453371803,0.4420482147012811,0.0010019966444064557,-0.014286040129868205,-0.06869154321934498,-0.011265489165897511,-0.48584030561022784,-0.1545769285359544
11.74463677406311,-0.07627749684804667,4.433706843056088,2.507082003238784,1.2991560210871538,0.4379104206592259,0.0007424548351122754,-0.008224146288334564,-0.05573475932023457,-0.010950739179348402,-0.4953905131381715,-0.4775103763971833
11.76459789276123,-0.050295642733904154,4.44245471969855,2.5070946829540564,1.2990478931141631,0.43691719885296026,0.0005265514084011304,-0.0026731860577561967,-0.04374795334715665,-0.010640323890386952,-0.4962321456817307,-0.042081627177958936
11.784672975540161,-0.037348282810556334,4.446751311815429,2.5071018569636383,1.297714391955402,0.43470914276817035,0.0004892098212470596,-0.006019458643788589,-0.018755555600568116,-0.010342790879124725,-0.4996870112179046,-0.1727432768086956
11.806552648544312,0.0015130721180009656,4.459712256778399,2.5071138493953145,1.2955276838025913,0.43231412454948565,0.0002387911031892193,-0.01331064020198265,0.007453576650818695,-0.010045327438230887,-0.5084270502072537,-0.43700194946745263
11.82468581199646,0.02742047220188413,4.468361701834726,2.5071166357739756,1.295187663116388,0.43271272588322435,4.082439822499621e-05,-0.020709027253651598,0.032157354761092403,-0.009752036446343346,-0.5094030899308821,-0.04880198618142373
11.844603061676025,0.05321176167891126,4.476914887926961,2.5071186579127125,1.292106056685425,0.43077543511371175,-7.429915596511234e-05,-0.018947865227581167,0.04963495057005332,-0.00946573703431613,-0.5160997578104372,-0.33483339397775147
11.864593267440796,0.07905019036690412,4.485541427267808,2.507115297665252,1.2917413334636683,0.43193266391312796,-0.00026078481845641545,-0.017591350803573626,0.06588471866009067,-0.009183505132897882,-0.5182692628913581,-0.10847525404604763
11.884625673294067,0.09190132814601104,4.489786393443059,2.507113808861367,1.2898928962088647,0.4302004903112701,-0.00036794551283503914,0.007095429501463924,0.04078859383636841,-0.0166413445937707,-0.5206435730031482,-0.11871550558950617
11.90461540222168,0.11765350992467957,4.498364963457699,2.5071064372243557,1.2883707799610369,0.4299823744878412,-0.0005763103144361423,-0.0014375976362953993,0.04492739928277044,-0.01596388434982746,-0.526084603279029,-0.272051513794036
11.924628734588623,0.15621324622293217,4.511265846624251,2.507089654183884,1.2857542500548904,0.4308186199120049,-0.0008419002353054734,-0.0018548816022292741,0.040364608522357646,-0.015304420274651214,-0.5326097011255042,-0.3262548923237629
11.944681406021118,0.18192791428211913,4.519889963492813,2.5070697985893915,1.285709957824306,0.4315762438940168,-0.0011415056117306216,-0.0026341968140473704,0.03531783535069875,-0.014658337620206604,-0.5350608309732827,-0.12255649238892552
11.964582443237305,0.1947020794791668,4.52421975018325,2.5070614452420856,1.2833758471962369,0.4322381653115464,-0.0011796085044451657,0.0025232322670332816,0.023427801293793075,-0.014044684953288263,-0.536544655993878,-0.07419125102976487
11.984963655471802,0.24592603647861483,4.541596581694783,2.5070056276351207,1.2808247867381244,0.4349928982112136,-0.0016725429245799564,0.01980250766522263,0.028676356193291626,-0.013430098508190385,-0.5490430854563866,-0.6249214731254282
12.004575967788696,0.27154760622073243,4.550302490907733,2.5069695310895996,1.281387226462651,0.435613261221987,-0.0019351056027631232,0.03631436501625322,0.03324796683547239,-0.012828289145435847,-0.5473852777909269,0.08289038327298215
12.024600267410278,0.2842887420153335,4.554706534937196,2.5069492298115383,1.2795978224330735,0.43737307767089617,-0.002070608614812201,0.03491874373902062,0.04887068210717848,-0.012250157359175158,-0.5515799029899164,-0.20973125994947495
12.044740915298462,0.3098875720031257,4.563464741393541,2.5069054055421667,1.2802793823756993,0.43849493698385994,-0.0023099316799939226,0.0331806478961223,0.06308174193666358,-0.011684162786596439,-0.5557053693123462,-0.2062733161214858
12.064675569534302,0.3226050154993274,4.567875061318355,2.5068812609586035,1.278045115066396,0.4396540103518696,-0.0024331070374441015,0.01937890327493494,0.05464115309965457,-0.011140597499023967,-0.5558975937876993,-0.009611223767658217
12.084605932235718,0.3481688784800177,4.576678486582632,2.5068304063587976,1.2782955118583617,0.44065902004004454,-0.002650579492738392,0.0056775721155508515,0.04579247756281565,-0.01060856060448536,-0.562909957801331,-0.350618200681585
12.104709386825562,0.3736557207897363,4.585516404816366,2.50677503244124,1.2765917936669708,0.4421051969631341,-0.0028644205817125843,0.007740325193684316,0.05187151073681191,-0.010090425168864856,-0.5647179196653282,-0.09039809319986158
12.125027179718018,0.4119386639615317,4.598832451163569,2.5066841496832537,1.2761633721996692,0.4444924244140598,-0.003173315308384206,-0.011662408896556847,0.04870496047371149,-0.009576887262111181,-0.5739086802513325,-0.4595380293002105
12.1447114944458,0.43745832022423303,4.6077318004271,2.5066188016708884,1.27573856534333,0.44543001055356496,-0.0033598117265220564,-0.03076905174297776,0.044957713374344774,-0.009074625011565743,-0.5744240775830254,-0.025769866584646195
12.164646625518799,0.4502135209069187,4.612226332188244,2.506584446138253,1.2752133356422153,0.44684475827952763,-0.0034585262580853794,-0.05993561648768904,0.028113195199617583,-0.008592837364165698,-0.5773805708659832,-0.14782466414788864
12.184698820114136,0.4757038922135995,4.621167724225251,2.5065135886286996,1.2737289802753964,0.4472381120924456,-0.0036256544314486687,-0.0883801563587137,0.011213258321444998,-0.008121755917067418,-0.5824954598362857,-0.25574444851512723
12.2045419216156,0.5012341434326438,4.630204215014108,2.506438144167866,1.2736274752499244,0.4496270892890506,-0.003813801349133462,-0.12625065798826018,-0.00830898018024568,-0.007662528982943065,-0.5856655068868402,-0.15850235252772293
12.225050210952759,0.5394748782806206,4.643769527882176,2.5063199331257815,1.2720744753679551,0.45144280761885586,-0.0040490422429754775,-0.16933949251201458,-0.03890877023137474,-0.007208612029816868,-0.5940857530451722,-0.4210123079166017
12.244735479354858,0.5648796940621634,4.652788586374856,2.5062375402961945,1.2682679173419495,0.4503626463834967,-0.004188762509380131,-0.21109536965094974,-0.06902739755720182,-0.006765148445240944,-0.5953618777189833,-0.06380623369055538
12.264611959457397,0.5903793876101635,4.661931886457131,2.506151900102325,1.2682802407976859,0.4525958149017388,-0.004335853130250286,-0.25010728701084006,-0.09891292741970428,-0.006334533278206884,-0.6014798824896719,-0.30590023853442894
12.284709453582764,0.6156924337006798,4.670962052466188,2.506063944334318,1.2628985570322728,0.4503228104522286,-0.004458322002701971,-0.28785089090400273,-0.12830564564292804,-0.005914031291613329,-0.6046073395818667,-0.15637285460974315
12.304577827453613,0.6411200397984861,4.680137641386095,2.5059735255343125,1.2626156722058601,0.45244926023267057,-0.004572228493361921,-0.3177359326815738,-0.15634790291792447,-0.005507163530891145,-0.6093583266867353,-0.23754935524342713
12.324564933776855,0.6663945156922588,4.68923386647956,2.5058814239861205,1.258921269885424,0.4518790935117057,-0.004664101278550603,-0.3417271804787161,-0.164188336176661,-0.005112764887377108,-0.6132314310763629,-0.1936552194813812
12.344640731811523,0.6915030350895807,4.6982380730405975,2.505787145223742,1.251853285192632,0.44851443434053384,-0.004762492058443162,-0.3649427198739606,-0.17232670528628627,-0.004727893064695573,-0.6181239567602272,-0.24462628419321675
12.36460256576538,0.7166708141199999,4.707353108970103,2.5056931046004407,1.2494772003190444,0.44924658879084134,-0.0047976096197678095,-0.37273312346996673,-0.19015384630599608,-0.004359678867040124,-0.6216601751486408,-0.17681091942067795
12.38458800315857,0.7415852966234895,4.716298824194614,2.5055963045668896,1.241945380890779,0.44526569034873625,-0.004881196512655007,-0.3804338626884993,-0.2079268077563178,-0.004000510566457458,-0.6268775263950519,-0.26086756232055475
12.404600143432617,0.7540802603030785,4.720823046587205,2.505549412377069,1.2405931855295322,0.44540489055847415,-0.004856602602606937,-0.3991356181092079,-0.21655214345651988,-0.003661904608561235,-0.6265491000652932,0.016421316487935655
12.42482590675354,0.7899534484120138,4.733720266170032,2.5054090696877065,1.230595450820429,0.441083635980682,-0.004900380732833278,-0.4279456060666044,-0.2255336084844924,-0.00333371229109865,-0.6379291586848752,-0.5690029309791012
12.444649696350098,0.8144778976783191,4.742496229285639,2.5053104167966076,1.2217567732352468,0.43648246401089336,-0.004963841928894571,-0.4557565613994355,-0.23459703673988488,-0.003013776476216692,-0.6370812007092419,0.04239789878166533
12.464629411697388,0.8279493175664238,4.747341062950799,2.505257445157671,1.2182752725745518,0.43547013487769526,-0.004946241161033994,-0.4736609734471472,-0.23682959955147806,-0.0027116388292100875,-0.641799923829605,-0.2359361560181572
12.484584331512451,0.8522189277436273,4.756002934639971,2.50515799776266,1.208628097348045,0.430708511255469,-0.004997516947315491,-0.49095541893874023,-0.23938634516508195,-0.0024172197077902296,-0.6459411306801259,-0.20706034252604422
12.504619598388672,0.8764095508769709,4.76462973244119,2.505060809474384,1.2015892023304455,0.42743048906175735,-0.004957311527168813,-0.5029371857375871,-0.22843760974076452,-0.0021392135096007458,-0.6503629163221762,-0.22108928210251566
12.52469539642334,0.9122900966747738,4.777354224015441,2.504914100646015,1.1879399213820632,0.4205853915268403,-0.004934274798335962,-0.526933497708531,-0.23378750375943125,-0.0018724806566716113,-0.6584728618002638,-0.40549727390437607
12.544704914093018,0.9359419530590577,4.785718804123722,2.504815058085411,1.1771686852913086,0.41585388469090184,-0.004969115499192593,-0.5500431947178569,-0.23940779702098608,-0.0016127505802495626,-0.6596879648506233,-0.06075515251797725
12.564679622650146,0.9477236003248627,4.789847094182912,2.5047676284227625,1.1725757516680944,0.412809125751173,-0.004919780370006731,-0.5651101142244108,-0.25238452403930395,-0.001369708130106134,-0.6627380532703415,-0.15250442098591055
12.584569931030273,0.9826872864679317,4.8021035639248,2.5046211790114525,1.1566522643790889,0.4047829214237055,-0.004907294173868342,-0.5764867623008412,-0.26018326158683935,-0.0011354585458250685,-0.6717542644315682,-0.45081055806133197
12.60464596748352,1.0057043012279838,4.810146661265141,2.5045228213359416,1.1450129712072505,0.3995005166245115,-0.004927713645699446,-0.5873589887953373,-0.2680720163663543,-0.00090753801317696,-0.6721179471663188,-0.018184136737531276
12.625200510025024,1.0171443061487233,4.8141185661227786,2.5044754601358528,1.1395597083935736,0.39650994232620834,-0.004880494761005624,-0.5978111929664067,-0.27260339650643556,-0.000694429301369432,-0.6756488720980127,-0.17654624658469675
12.644686222076416,1.039815264850392,4.821993931442745,2.5043777252681396,1.1275028909034628,0.39101077008864643,-0.0048923012116148515,-0.6077925471355177,-0.27734919778539513,-0.0004871886701323248,-0.6802155553012752,-0.2283341601631239
12.664665222167969,1.0622613905368,4.829755037539959,2.504282222862046,1.1158919362260558,0.3853408344135112,-0.00484060871689456,-0.5893308939047611,-0.27959685452035793,-0.000292354938344838,-0.6839908300568043,-0.18876373777645394
12.684544563293457,1.0954541364065178,4.841179261241715,2.504138007185899,1.0977186370035286,0.3766235388509482,-0.004816255626069654,-0.5726267948768223,-0.2815365710999434,-0.00010462227832798651,-0.6919214323337712,-0.3965301138483479
12.704638242721558,1.1172950672179622,4.848655275448296,2.5040416733958915,1.0864281162010956,0.3709700898164616,-0.004816515475662163,-0.5565250515405329,-0.28387405370406316,7.774838490464813e-05,-0.6928883013621139,-0.048343451417132144
12.724757432937622,1.13881316740681,4.855985627775492,2.5039445662965747,1.0726695842627219,0.3645791186443249,-0.004843321946016465,-0.5540324630240648,-0.2692170301683165,0.00025406072987448997,-0.6992355863584168,-0.3173642498151441
12.744607925415039,1.1601026859376868,4.863202709373633,2.503846348397693,1.060002566432926,0.35840354664957114,-0.004884736171319199,-0.5304417693507039,-0.27989713904115365,0.0004269273469417953,-0.7013002118099889,-0.10323127257860776
12.764647006988525,1.1811981795324238,4.87031408688595,2.5037487503258538,1.0496226272132865,0.35269847297041323,-0.004874511986506954,-0.5076913475186628,-0.2906165820646241,0.0005946361295916627,-0.7067940961722514,-0.2746942181131251
12.784541130065918,1.2019239523467338,4.87725547630604,2.5036464660892523,1.0355335253526377,0.34560329746105906,-0.004986144112595732,-0.4738738346624542,-0.2904277923898697,0.0007625226984237932,-0.7094978232337987,-0.1351863530773656
12.804639101028442,1.2225420386492432,4.884109449276972,2.5035469066450107,1.0263835746111047,0.3397932982865528,-0.004969257928096208,-0.44133266037253116,-0.29063808540637665,0.0009252386974280945,-0.714502028614663,-0.2502102690432162
12.824621677398682,1.2326496095018191,4.887471891655297,2.5034935029295746,1.0183426725315703,0.3361619932157455,-0.005066999610557804,-0.41415512950479605,-0.3067063312512229,0.0010858727896286544,-0.7139064231446239,0.02978027350195589
12.844816446304321,1.2727916974630655,4.900657346937473,2.5032843786565526,0.9952715058557188,0.3230864525477902,-0.005208456841285271,-0.42057392758627266,-0.36167922333561703,0.001253729283475986,-0.7283609775116218,-0.7227277183498915
12.864675045013428,1.2926125981526762,4.907043158345251,2.5031804711841326,0.986798050877368,0.31531697436753936,-0.005181748976733514,-0.42672764734480445,-0.41499368038299317,0.0014161575049533915,-0.7244358906199997,0.1962543445811038
12.884589195251465,1.3023297268898963,4.910199117656398,2.503122048666136,0.9788783754370266,0.3114448395277609,-0.005355616651830417,-0.43333737167487274,-0.4743647637334815,0.0015812648280435432,-0.7309799538586761,-0.32720316193382004
12.90467119216919,1.3218201975640451,4.916329277225509,2.5030152633175713,0.9701474110435265,0.30137945774914726,-0.0053223861946968785,-0.4397216899583918,-0.5318629993017955,0.00174086884011378,-0.7339872440161104,-0.15036450787171418
12.924639463424683,1.3410311658346419,4.9224575938285895,2.5029046351102435,0.9587888433559765,0.29581580953160974,-0.005445652999290739,-0.45841358044850655,-0.5745480133984,-0.005962265241494557,-0.7381008481307307,-0.20568020573101808
12.944636821746826,1.3695724948704548,4.931252301375953,2.502744334061871,0.9445276339433485,0.28341973200729287,-0.005503171952574451,-0.47370138710563714,-0.6038241382189117,-0.013260302033051704,-0.7460818837786722,-0.39905178239707517
12.964634418487549,1.3883673201526447,4.9367980304393555,2.502631145530429,0.9349060693049578,0.2710589814510764,-0.005839109254300217,-0.48834900330121467,-0.6320821936394916,-0.020288775807091246,-0.748530239114471,-0.12241776678993954
12.984619855880737,1.3977010591842363,4.939623290185521,2.5025815574041843,0.9301637470082779,0.26886206282862873,-0.005752226406367323,-0.5062812202351895,-0.625959257483428,-0.018950180523404664,-0.74967729768602,-0.05735292857744767
13.00468897819519,1.4162019188849018,4.944875737179658,2.5024628103810413,0.9198648774995432,0.25640234036281356,-0.0061181270013053474,-0.5234850275476993,-0.6200480844324779,-0.017645502687671316,-0.7575357675825787,-0.39292349482793476
13.024605989456177,1.434554758691622,4.950027016546856,2.502352984464198,0.9107403672221401,0.24760305916297157,-0.006093036751628368,-0.5512406957647493,-0.5891173909120656,-0.01641586343900609,-0.7589646880449452,-0.0714460231183267
13.044547319412231,1.4616958801295865,4.957189068730734,2.5021663249364163,0.8964320256575806,0.22995103706719877,-0.006481221628666564,-0.5171455560271186,-0.5641411248417785,-0.015219845797812466,-0.7707667761420174,-0.5901044048536086
13.064733028411865,1.4795233023254313,4.961676877469527,2.502033734713684,0.8864197036711144,0.21890983924139082,-0.006773917469479865,-0.48429238173581635,-0.5401401917755281,-0.014054887861644086,-0.7698336481940178,0.046656397399980065
13.084604740142822,1.4884055102201503,4.963782746277017,2.5019644017159592,0.8829142906918115,0.21205211585758393,-0.006939638060471526,-0.45624047504933696,-0.5137469455627577,-0.01294653260495853,-0.7753835076132582,-0.2774929709620233
13.104633569717407,1.5059743641001062,4.967922747723589,2.5018230920718336,0.8740610120891884,0.20203261005081852,-0.007187729475016415,-0.42926581757941124,-0.4883723598731747,-0.011867464315706582,-0.7791455619228871,-0.18810271548144186
13.124769449234009,1.514656716412433,4.969812784995529,2.5017456734851256,0.8687823829870276,0.1942669452161706,-0.0074431544036559225,-0.4134825372694604,-0.46856497540526565,-0.010834342136501484,-0.7812249698058609,-0.10397039414868914
13.144599437713623,1.5319506883370644,4.973605688297296,2.5015947110090946,0.8606653276743421,0.1850865414316504,-0.00764974227826724,-0.3983269450809835,-0.4496178477935999,-0.009829060832567883,-0.7874792064231491,-0.31271183086440946
13.164645195007324,1.5489580940407135,4.977009109678297,2.50142806871159,0.8496674692393011,0.17090095454700474,-0.008134901544624385,-0.38214783509584077,-0.44623183517108483,-0.008848366166747128,-0.792215345978807,-0.2368069777828996
13.184643268585205,1.574200707845644,4.981808222402069,2.501171885429765,0.8362351396491663,0.1540661799939827,-0.008622972901411664,-0.3638559911809979,-0.4298129503348096,-0.007879795014517478,-0.8015531012025132,-0.4668877611853084
13.204683303833008,1.5908538224844009,4.984804639535458,2.500997913224762,0.8291348737770222,0.14562770311456613,-0.008771109518049823,-0.34629097408112847,-0.41416184889493407,-0.006938365893032501,-0.8021187290434493,-0.0282813920468028
13.224689245223999,1.599070407262118,4.986128782281228,2.5009026590737156,0.8241340489921933,0.13844127870384718,-0.009039977417189912,-0.33793966122173164,-0.39985767430642405,-0.0060344261832058765,-0.8066779980064562,-0.22796344815034786
13.24497675895691,1.631680814282937,4.991169420368565,2.5005251592914517,0.8086281115823627,0.11817485489050826,-0.009543507293654009,-0.33217209872988734,-0.3883586879002219,-0.0051337704704638365,-0.8200523108508562,-0.6687156422199969
13.264666080474854,1.6477873129696914,4.993455985334786,2.500333321120137,0.802040075403401,0.11051817547214512,-0.00963739518949968,-0.3266765436118794,-0.3773984460480863,-0.004259371162790237,-0.8174535019546769,0.1299404448089625
13.284587621688843,1.6549595410987017,4.994344137327507,2.5002395576971472,0.7981953673933083,0.10469486182653831,-0.009867446623538192,-0.32443992619009154,-0.3550701623097024,-0.003421671408249171,-0.8237935323248946,-0.3170015185108843
13.304675579071045,1.670858701971958,4.9963684634723124,2.500041579023094,0.7917276699156054,0.0978091447933199,-0.009927711917542019,-0.3223548926174802,-0.3336523298790935,-0.0026090075104735033,-0.8262073196603881,-0.12068936677467335
13.324920415878296,1.6787352030329705,4.997231624171169,2.4999356948623266,0.7878081592971085,0.09183074973321015,-0.010127521667247907,-0.3257824670164182,-0.315714654655255,-0.0018312179479051487,-0.8291102559728691,-0.14514681562405318
13.344631671905518,1.6944259852429648,4.999006255102858,2.49973282884286,0.781258904330557,0.08568967483101425,-0.010156567201895185,-0.32912968879112026,-0.29851508190891746,-0.0010772902327662436,-0.8337883334369565,-0.23390387320436634
13.364681959152222,1.7099797724568728,5.000492035821534,2.499521398444799,0.7745291260353105,0.0756275363019858,-0.010370615800913736,-0.34149125553846027,-0.2876089083323592,-0.000350783769935493,-0.8389969775486805,-0.26043220558620295
13.384541273117065,1.7330874239265395,5.002534759785497,2.49920636118244,0.7649367887640293,0.06435331271298239,-0.010478023454481369,-0.3568939790166194,-0.2791690057910351,0.0003546740379254023,-0.8464584969667737,-0.37307597090465716
13.404620170593262,1.7483137836718643,5.00376653861922,2.4989969175463744,0.7576498144592294,0.05885162016863238,-0.010464063994030513,-0.3717054858839007,-0.2710540880440143,0.0010375257548519326,-0.8475128348792005,-0.052716895621340853
13.424615383148193,1.7634715541538128,5.00478458536479,2.4987854630498663,0.7522262834191517,0.050890376979339846,-0.010492420302130212,-0.38008547512301805,-0.27286784131414443,0.001684937808532873,-0.8546034264308435,-0.3545295775821522
13.44457197189331,1.7859372421470738,5.00615154850685,2.4984717603367366,0.7427081294008845,0.04177521828774287,-0.010425425586709672,-0.3938097127399216,-0.26521047385372043,0.002304363823506391,-0.8597841328803657,-0.25903532247610883
13.464598417282104,1.8007117530887344,5.006934504569908,2.4982637529501948,0.7346988978055253,0.036544801157878413,-0.010373317712036687,-0.4070298915379099,-0.25788646517245134,0.0029029744813654345,-0.8624503909636201,-0.13331290416271901
13.484562158584595,1.8153234686939221,5.007614295068441,2.498056906067625,0.7264302577678876,0.03145756398952771,-0.010309443771401769,-0.4197514660579682,-0.2508918101887481,0.0034810105472177118,-0.8668861607311968,-0.2217884883788379
13.504671335220337,1.8227171769070771,5.0078881159221815,2.4979578116225785,0.7254834534807472,0.028543103030886485,-0.010177202946311654,-0.43075621753790994,-0.23283636822550627,0.004007511629487831,-0.8671497964965544,-0.013181788267879746
13.524646282196045,1.8371852533070772,5.008404525516074,2.497756464356067,0.7182787000297023,0.02371665799766002,-0.01004673347057165,-0.4401294985872957,-0.21967641466548377,0.004504741258025463,-0.8732555594826641,-0.30528814930548265
13.544524431228638,1.8514621980855794,5.008835774508384,2.49755646288268,0.7093859687165976,0.019450362937327145,-0.009951816395158757,-0.4490723150513935,-0.20703980070597053,0.0049839866623053375,-0.8747961150265566,-0.07702777719462706
13.564652681350708,1.8586081909120231,5.00899919163981,2.497459232160073,0.7068593331933698,0.01697272524736884,-0.009839230657269682,-0.466879422071251,-0.18521197933277417,0.005426679600307582,-0.8768982453014007,-0.10510651374220359
13.584563493728638,1.8796878848282765,5.00938656007012,2.497168685249535,0.6956999499310054,0.010030551950225465,-0.009609616274425869,-0.41223122643706456,-0.21944460757932585,0.005841046013605576,-0.8846885923594874,-0.38951735290433387
13.604677677154541,1.8935229766090371,5.009541051310194,2.4969776879556336,0.6879844549137726,0.005307877806458206,-0.009488785274289407,-0.3596627701512263,-0.2526530751746575,0.006239401654250347,-0.8853439542770687,-0.032768095879065484
13.624775886535645,1.9072410171806449,5.009613868380945,2.496792259987841,0.6814557197711175,0.0011438905843667011,-0.009289177294828255,-0.3185378540499396,-0.23711660328234388,0.006603153086680421,-0.8908541722803593,-0.27551090016453283
13.644543409347534,1.9207602090060973,5.009628245307503,2.4966082350920455,0.6735346229400109,-0.002235359685544468,-0.009141172540288518,-0.31371964035618993,-0.2276419053215041,0.006944456050658152,-0.8924221166738877,-0.07839721967641822
13.66464114189148,1.93416846783149,5.009538616370976,2.4964268225724138,0.6673065937522134,-0.006697615994544262,-0.008998989236174593,-0.3091193436074275,-0.21866641035315526,0.0072715150024679044,-0.8974594984270801,-0.25186908765961746
13.684578895568848,1.9473032405581339,5.0094411378194055,2.4962476881405857,0.6574735768384423,-0.009022339023029194,-0.008867136653726102,-0.3091821800778291,-0.2026559325277486,0.007572152565072398,-0.8987649591268512,-0.06527303498855552
13.70463252067566,1.9603908706340796,5.009221189231629,2.4960718792155934,0.6512891658214175,-0.012921679601570634,-0.008712797972394255,-0.3092616520527509,-0.18740373203488173,0.00785951726561854,-0.9036748436668933,-0.24549422700210766
13.724623441696167,1.9732727482418944,5.0089475968412085,2.495899214213264,0.6432116428289465,-0.016157106088677962,-0.008549528393498134,-0.31186853616502563,-0.1764825690508893,0.008120540731811024,-0.905631071170049,-0.09781137515778582
13.744549989700317,1.9860667458813648,5.0085829054471,2.495730315309749,0.6366479474196971,-0.01980480210174818,-0.008369097749981468,-0.3227608749049119,-0.1640829013444855,0.00836193976272272,-0.9099507698704148,-0.21598493501828742
13.764638423919678,1.9987344473552313,5.008154788219444,2.4955646212446183,0.6300872803528114,-0.022967668211371004,-0.008199543453131905,-0.3332368398983056,-0.1523070377137578,0.008591535271305862,-0.9123048744842377,-0.11770523069114525
13.784538269042969,2.011287478353311,5.007642165995368,2.4954042633401055,0.6239272832651901,-0.026397208465691702,-0.007976645898441279,-0.3366858920182839,-0.13099816978730908,0.008793976610786692,-0.916229620115065,-0.1962372815413671
13.804657220840454,2.0236984656048076,5.007089394775127,2.495246502172564,0.6171605241532326,-0.028812079164660602,-0.007798832051725404,-0.3399612468261392,-0.11064765807317652,0.0089856201686314,-0.9184248971920099,-0.10976385384724452
13.824693202972412,2.0298775510641502,5.006780790342801,2.495170519453673,0.6146137365600625,-0.03013631589795947,-0.007663061090555578,-0.3193248254579126,-0.08565210369293565,0.009155155287358724,-0.9194129143627445,-0.04940085853673004
13.844637155532837,2.0421072956424173,5.006162543237585,2.4950191000671733,0.6084267840246476,-0.031608851913178124,-0.00747834558702695,-0.2995058310891001,-0.061789051228223854,0.009314749194303248,-0.9230728540938786,-0.18299698655670493
13.8646399974823,2.0542129253072186,5.00545099424949,2.4948732002616842,0.6021131372553378,-0.03445615366751194,-0.007248560263347284,-0.30903826234635606,-0.04438728568463424,0.009450412725409285,-0.9257313265224321,-0.1329236214276719
13.884626150131226,2.0721121679850634,5.00433661690122,2.494660293622655,0.5920446294861914,-0.037425945439135036,-0.0069561473374265105,-0.32296555138272964,-0.03296034077838304,0.00956731252678471,-0.9309011062581773,-0.2584889867872642
13.904654502868652,2.0838875669508643,5.00358223449231,2.4945230915049392,0.5854507045409921,-0.03797641692494573,-0.00676370316682227,-0.33633442796246377,-0.022196641247257367,0.009675694674464544,-0.9309857525636578,-0.004232315274022014
13.924794673919678,2.089723109420907,5.003150780746483,2.4944563126077677,0.5819613385743674,-0.03951313455992067,-0.006655032053704052,-0.3513782124613732,-0.010736888682683398,0.009768326061249971,-0.933650500745911,-0.13323740911266313
13.944600582122803,2.10129108856032,5.0023591000398095,2.4943251714133785,0.5747884879729198,-0.039619040902712885,-0.006458804826503978,-0.36580455322019756,3.182078203338495e-05,0.00985309551004515,-0.9352080247223644,-0.07787619882266839
13.964924097061157,2.1127837184520133,5.001502569330751,2.494199809285641,0.5692431397168743,-0.041066911018532215,-0.006210816998280333,-0.3787727327906617,0.011474207497460769,0.00991658649934744,-0.9383874601523146,-0.15897177149750696
13.984568119049072,2.129761206469396,5.000249212948425,2.494020096521682,0.5597767223525936,-0.04133681901500937,-0.005850839586098086,-0.39429722183533134,0.025947877912607827,0.009959750285447044,-0.9412668588535476,-0.14396993506164968
14.004668474197388,2.1408768805983547,4.999428592134491,2.4939050742351623,0.5517412112627362,-0.04067960705994251,-0.0056512666388416335,-0.4091411427211697,0.039644633916688155,0.009996479977952447,-0.942105700709337,-0.04194209278947092
14.024950981140137,2.1464416686954175,4.999005885875651,2.4938513964741915,0.5494449391465572,-0.04068461097265001,-0.005484411447895849,-0.42432149741097325,0.05162506430469596,0.010017703553601742,-0.9430996723261917,-0.04969858084273859
14.044560432434082,2.162807966318571,4.997781606787324,2.493693725874686,0.5387063272441879,-0.039799919227977265,-0.005116528242486868,-0.43699549962047957,0.06359255960524358,0.010019601606792007,-0.9466422865166639,-0.17713070952360965
14.064732789993286,2.1734938795798793,4.996999088249507,2.4935933990963077,0.5298447986825381,-0.03841447184636058,-0.004916160590098968,-0.44905568751549985,0.07483152556107531,0.01001630452747602,-0.9464059179957354,0.011818426046428243
14.084558010101318,2.1840993175874557,4.99621354155944,2.4935007442434687,0.5232270064702327,-0.03763698758462889,-0.004623912083178279,-0.45914612585472003,0.08370272979697356,0.009993300895900666,-0.9491575147148703,-0.13757983595674705
14.104681730270386,2.194471382660577,4.995478103590784,2.4934102629068406,0.5139476539236243,-0.03587924681767026,-0.00442431299613806,-0.4687003132892695,0.09197159662104964,0.009965877153852047,-0.949115859273217,0.0020827720826677165
14.124641418457031,2.1991397882828623,4.995146646745746,2.493373274224082,0.5119537133889497,-0.03518055621988071,-0.004264512133206046,-0.4126367648131929,0.11612225757277625,0.009926856653574049,-0.9499594575101376,-0.04217991184602976
14.144591569900513,2.2092999724656504,4.994467807924299,2.493289966555828,0.5042449075876674,-0.032626962593859096,-0.0040663977667147995,-0.3585755595317151,0.13903151972895625,0.009883935413685457,-0.9504998074435727,-0.027017496671755126
14.164680004119873,2.2198169168688766,4.9937744149996695,2.4932105357036503,0.49676114588708126,-0.030920075116360607,-0.0037704194061193358,-0.3157372157776531,0.1175293631505102,0.00982315478080566,-0.9519639723630715,-0.0732082459749428
14.18454384803772,2.2344669418059104,4.9928855133473355,2.4931019380104247,0.4839688681578145,-0.0277611577772993,-0.0034790116461704042,-0.321033430689425,0.11090541236485096,0.009750591120033982,-0.9529465261105088,-0.04912768737186379
14.204627275466919,2.244081771321413,4.992352019224987,2.493034302917845,0.4774972227728967,-0.0256110292224109,-0.003284748819145988,-0.3260916597942663,0.10407305161345591,0.009675229803646795,-0.9533855361443972,-0.021950501694423252
14.224627494812012,2.2533954506088167,4.991896658284335,2.492967438101657,0.46685014321169693,-0.02256755764835236,-0.00317069999574651,-0.3281237647984803,0.0966081217449435,0.009595181809489556,-0.9535494226935484,-0.008194327457555772
14.244648456573486,2.2626666993026934,4.991464122232834,2.492905937675615,0.4602683557059659,-0.020711519591813683,-0.0029796178087039362,-0.3300349251617308,0.08896655722396686,0.009512622569599406,-0.954661064464247,-0.055582088534933405
14.264631748199463,2.271727953850019,4.991152533957602,2.4928463976820847,0.4518948326996415,-0.016795002470403726,-0.0028311313524757784,-0.33132758720515626,0.08299236901820513,0.009423452380878517,-0.9533305395327587,0.06652624657441653
14.28462839126587,2.2806995036565834,4.990832823534941,2.492791653692262,0.4452561618502501,-0.015196656409056254,-0.0026435720802003653,-0.33252343354193187,0.076807452355401,0.009332118026271674,-0.9556042216600704,-0.11368410636558579
14.304633140563965,2.2851262016937937,4.990750938034165,2.4927656337102135,0.4416609520371493,-0.012586068113379428,-0.0025515648515276666,-0.33748759937457173,0.07154815112970342,0.009237266433390944,-0.9530124444979182,0.1295888581076099
14.324700355529785,2.2982252572841912,4.990472742436031,2.49269336827653,0.4314773259211188,-0.008561530750187191,-0.0022723191749273717,-0.3487929555164933,0.06812213666287756,0.0091320190260513,-0.9552891597802908,-0.1138357641186305
14.344774007797241,2.3067843173664646,4.990314894546569,2.4926497412025674,0.4243927179865223,-0.007235562917435498,-0.0020907442129359747,-0.35958235306599917,0.06443079400666844,0.009025222202627027,-0.9549069943585313,0.019108271087975304
14.364614009857178,2.3110128225004525,4.990304529664824,2.4926291506670712,0.4207549179666031,-0.004976293613037756,-0.002005381199527763,-0.37416550240307944,0.05864123491252128,0.008916208116015612,-0.9544239460659032,0.024152414631406494
14.384562492370605,2.3234893061405533,4.990239476099629,2.4925731177536212,0.41025076567781177,-0.0015368239998791817,-0.001734716892904868,-0.36686524757986805,0.06252057976335257,0.00879756159951309,-0.9552647479450593,-0.042040093957806945
14.404689311981201,2.331621424119421,4.990221476664912,2.4925401749682266,0.40298463645075944,-0.00025189785066485486,-0.0015599604591357073,-0.3597839277140493,0.06588718791525991,0.00867791836507778,-0.9557457507745188,-0.02405014147297546
14.424606800079346,2.33964011906219,4.99030061521753,2.4925115372251527,0.3967667533902841,0.0026771071259351436,-0.0013661373918838237,-0.32878917132207547,0.053419835705675614,0.008550368288536727,-0.9549309760732201,0.04073873506493797
14.444506883621216,2.34750847425239,4.990387005743927,2.4924862070844616,0.3904242716383885,0.004430814012551205,-0.0011871074203972773,-0.289100479391926,0.04549409531496282,0.008418962914972966,-0.9560856035706671,-0.05773137487234958
14.464599847793579,2.3552617107686737,4.990484191699747,2.4924641399460303,0.38502670178949727,0.005261312195865424,-0.0010200459118393517,-0.2509036376013859,0.03755330052704786,0.00828711658587614,-0.9565408190352485,-0.02276077322906911
14.484524965286255,2.362821573600799,4.99066777942351,2.4924448022577024,0.37750706028215625,0.007813240761069278,-0.0008756708540356809,-0.25092878029339666,0.03899597087669169,0.008151076017366901,-0.9557953370825429,0.037274097635275893
14.50462007522583,2.3703215331917478,4.990831916041021,2.492428909977067,0.3724892020101342,0.00860366187351973,-0.0007140112934259159,-0.250837850938954,0.039968355071751026,0.008014851196744287,-0.9576238834581097,-0.09142731877833654
14.524971008300781,2.3739440539303436,4.990964840602563,2.4924205347216994,0.3675490919756606,0.010433179304733312,-0.0006820822981549913,-0.24113480993655476,0.06139557313111963,0.007881544139144528,-0.9553595555376337,0.1132163960237964
14.54463267326355,2.38124744365437,4.991187154393535,2.492408460489356,0.362821423440404,0.011865804685994477,-0.0005257858210673782,-0.23167186741408313,0.08167728948595,0.0077480790294906215,-0.9576546256519687,-0.11475350571674703
14.564656496047974,2.3883647943840143,4.991454965869334,2.4923978810287553,0.35588267551831415,0.013739636508870584,-0.0004089168074843998,-0.241979459950808,0.09102754989395402,0.007612140852029444,-0.9558213213977429,0.09166521271128936
14.584633350372314,2.3989093229176577,4.991874535158161,2.4923888825377603,0.34812431042492853,0.015507423781286786,-0.00018489212233245363,-0.23195648984170603,0.09406567675267352,0.007469422202877866,-0.9581862773894421,-0.11824779958495846
14.6062593460083,2.405826071310963,4.992203675631908,2.4923866690807217,0.3435829593930168,0.01741517520130679,-3.69282668981871e-05,-0.22222728595186234,0.09663127141414411,0.007327016861565423,-0.9561860498259311,0.10001137817554628
14.627388715744019,2.4126422585875007,4.992517162315618,2.492387884815443,0.33881741334024273,0.018114571513496915,0.0001210937018954004,-0.22447482587731415,0.10698649468225946,0.007179860754095292,-0.9587574060243749,-0.12856780992218653
14.64529299736023,2.419373568167456,4.992901502261773,2.492391732880048,0.3343064598919673,0.02035133664381098,0.00026322416536495616,-0.22660027593174406,0.1165607330233403,0.0070332829981118936,-0.9561294317324478,0.13139871459635355
14.666966199874878,2.425999519548137,4.993289234329522,2.492398793327824,0.329369250872831,0.02168199148513228,0.00041209238584702634,-0.2345210457254514,0.12422238239686852,0.006882705828523624,-0.958446951232816,-0.11587597501840907
14.688798666000366,2.432539489879531,4.9937481939975585,2.49240840171896,0.32460254943983907,0.024237157671800496,0.0005482475233890331,-0.24209096167609087,0.1311772506378785,0.006732944676042701,-0.955521876262794,0.14625374850110173
14.704749822616577,2.435779472518358,4.993968019431468,2.4924145813572633,0.3224206212423275,0.02471969041988726,0.0006252140333608031,-0.23817447617858384,0.13084658879202912,0.0065840548618959615,-0.9581360084650621,-0.1307066101134069
14.724630117416382,2.4485227250042962,4.995015763685562,2.492446104065045,0.3138122203347509,0.028809402600902215,0.000919023572585977,-0.2408994853598383,0.12662167122452783,0.006423361047589069,-0.9547514541805446,0.16922771422587246
14.744680166244507,2.4547506168838624,4.995616987870088,2.4924657585627856,0.30896848570162305,0.03129849774694493,0.0010458950231020826,-0.24344409879722895,0.12226627550257503,0.006264007581718611,-0.9562482072324565,-0.07483765259559405
14.764652967453003,2.4547666269829986,4.99560526083798,2.4924661924792653,0.3094439808517404,0.030856002856337068,0.001058167268351304,-0.24951888178110088,0.11732522852792988,0.006110564655419349,-0.9555449353442951,0.03516359440807193
14.784540891647339,2.463973179983549,4.9965818665936155,2.4925016703652454,0.3029295413123047,0.034339433423951626,0.0012682995788053924,-0.25566431711733195,0.11588848011826906,0.005950715067764196,-0.954467868193821,0.05385335752370324
14.805925130844116,2.4699802434152494,4.997291726929574,2.4925282159194118,0.29775732640650726,0.036641129286084394,0.0013857280867387452,-0.2615070114561968,0.11424726104422431,0.005792389707127653,-0.9540854671045054,0.019120054465782133
14.824674367904663,2.4729818679307383,4.997671649791088,2.492543317835543,0.296159733949286,0.03802725592498146,0.0014695285875176755,-0.2667742228494062,0.1155367962790189,0.005635085009468385,-0.9536332855100969,0.022609079720425918
14.844695329666138,2.4788513709224387,4.9984553720196905,2.4925738250165734,0.2907739599114267,0.040348186170514506,0.0015806704494032155,-0.2717558727244517,0.1165026386642568,0.005479365160575748,-0.9525771131592085,0.05280861754441979
14.864694118499756,2.484678760233395,4.9993011089183526,2.4926082308805033,0.2869884719235606,0.04306788224958371,0.001731638624698543,-0.2732241540462492,0.11863619589851007,0.0053197502485916445,-0.951794059557622,0.03915268007932404
14.884558200836182,2.4932068471903195,5.000650879669767,2.492663753219374,0.27989139624772463,0.0467375312628939,0.001923543900965647,-0.2817901642726776,0.1181787187181498,0.005154563563796688,-0.9500318934666541,0.08810830454839547
14.904684066772461,2.4987477679591543,5.001609218554585,2.4927032441005768,0.27417358772216777,0.04909370221322389,0.002025000454265676,-0.2899181278185819,0.11738229975861811,0.004991433927130833,-0.9497425977702307,0.014464784821166532
14.92464828491211,2.5042345744869694,5.002618124299311,2.4927464198654388,0.26990327266939873,0.05151195207750364,0.0021652793911789347,-0.2924637584980155,0.11431931202901709,0.004825455824508105,-0.9483389782925977,0.07018097388165057
14.944600820541382,2.5095739896097666,5.003671010369887,2.492790679591031,0.2640305613413882,0.05376560462932006,0.0022601473566875013,-0.29476729275355157,0.11100427480793569,0.0046617122481175865,-0.947671364369477,0.03338069615603789
14.964705467224121,2.512239657224704,5.004221156251054,2.492814577548887,0.2621883737865214,0.055043673624572076,0.0023354209863589294,-0.2976338427791381,0.10590333768740155,0.004500000582870584,-0.9473694532278367,0.015095557082012157
14.984590530395508,2.5174237195350666,5.005342861923201,2.492862175300458,0.2562091476371521,0.057109331498592,0.0024238226268016487,-0.3002467822412123,0.10063476031805686,0.00434053721561764,-0.945789440626692,0.07900063005723545
15.004643201828003,2.522540331513662,5.00653468405164,2.492913002299795,0.25163314742228726,0.06006078428530046,0.0025452925308224223,-0.2826905083828849,0.12038563490001844,0.004179173086789914,-0.9447038466843498,0.054279697117110004
15.02470326423645,2.5275273793655213,5.00776940535948,2.492965151333492,0.2464635223445351,0.06291992422089657,0.00264111645128615,-0.26389501558901435,0.14099952590549752,0.004018505304613891,-0.9430851281962607,0.08093592440445718
15.044491052627563,2.5347914649042043,5.009707281939804,2.493046726796647,0.238300717823934,0.06683681223231296,0.002774770275054034,-0.2479041980013757,0.1560713736987872,0.003855170905742706,-0.9408283373331061,0.11283954315772782
15.064564943313599,2.539508944756315,5.011076183150204,2.493102982477875,0.23349925718768474,0.07009994863873431,0.002850262092313812,-0.23230719685911114,0.17006357237073572,0.0036944439945467565,-0.9399357909475978,0.0446273192754143
15.084541082382202,2.544076301474461,5.012454000268394,2.4931607700996485,0.2275298147301524,0.07208333317789521,0.0029223212027119933,-0.2117218563856685,0.18410668605904876,0.003535047126014386,-0.9386371455367821,0.0649322705407851
15.104639291763306,2.5485858976519378,5.013933368432949,2.493219913038578,0.22349654995219984,0.07589656474044994,0.002991450152907503,-0.19169768267821502,0.19703138905664672,0.0033782856377316947,-0.9366149424994266,0.10111015186777816
15.124643325805664,2.5529247457881987,5.015408620124488,2.493279986586332,0.2175139737476685,0.07782657207551996,0.0030462707310122774,-0.1642842643778203,0.20257168494304195,0.003223740622119609,-0.9364247323216461,0.009510508889021274
15.14455509185791,2.5572001101219763,5.016977619336179,2.4933412953495977,0.21305752181994708,0.08093784196937157,0.0031007135665371173,-0.13303964338827204,0.20032455782309733,0.003071858993716055,-0.9339365446036165,0.12440938590148054
15.164671897888184,2.5614366854949426,5.018636263934684,2.4934039139984385,0.21070082871904033,0.08491730866153761,0.003160653780348651,-0.10279548571855533,0.19753194081459494,0.0029225975333852443,-0.9338239422381043,0.005630118275612439
15.1845543384552,2.565485439368411,5.020332575427347,2.4934665508282183,0.20504801778614204,0.08804364418028537,0.0031873222256755865,-0.09066040403748137,0.21018996291601127,0.0027769517668532707,-0.9310970608516835,0.13634406932103715
15.204740047454834,2.5695690583037805,5.022136280445955,2.4935308430818046,0.2033531047575659,0.09236574247245842,0.003241426201000456,-0.07889163956716005,0.22185563213649753,0.0026338718617454036,-0.9316739735837105,-0.02884563660134898
15.224689722061157,2.5734689378526174,5.024007325089085,2.4935945820295937,0.1981909016094873,0.09626102892004658,0.0032538165690446665,-0.06422698311523463,0.2237352330373691,0.002494997044803527,-0.9282895072712893,0.16922331562105875
15.24449348449707,2.5773753002018918,5.0259647550030415,2.493659796553606,0.19557083816076629,0.10029627551956515,0.00329091598373637,-0.04627183172812029,0.22071024569887143,0.0023589401534705443,-0.9301370509282174,-0.09237718284640373
15.264669179916382,2.5812786298438555,5.028014595752863,2.493726077714353,0.19481999524338506,0.10467604377121438,0.0033367547929691013,-0.028910960098709665,0.2171836771788263,0.0022253504397012217,-0.9270240774667888,0.15564867307142904
15.284526824951172,2.585063155370233,5.030130283639132,2.493792810076745,0.19171821629381441,0.10853909321757377,0.0033693210883666367,-0.016852898929932414,0.21626028854729124,0.0020941590807395205,-0.9292670270365169,-0.11214747848640183
15.30456805229187,2.5888949321762325,5.032344229519363,2.493860606706599,0.19149827257711974,0.1128506552609193,0.0034099127413692353,-0.005210341207930173,0.21480856641049886,0.0019654120576190043,-0.926396714569472,0.14351562335224166
15.325309753417969,2.5926341079028674,5.0346509448956205,2.4939288688051535,0.18931259777694817,0.11740837832244688,0.0034395674502970346,0.00873687930565109,0.21985072950928436,0.0018389986925098124,-0.9291243680531172,-0.13638267418225603
15.344544172286987,2.5980836659571716,5.038159092225138,2.4940292328314144,0.18847841018606354,0.12399343835196919,0.0034873981799617105,0.02984810438417743,0.2071318081703958,0.0017129567358916198,-0.9262373008391358,0.14435336069906768
15.364658117294312,2.6018605720005565,5.040679531125674,2.494099315107523,0.18927995602082504,0.12800750391785382,0.003520417545817857,0.05017681607269553,0.1942475435060419,0.0015893908822155493,-0.9305019360804505,-0.21323176206573535
15.384523630142212,2.6037184138309466,5.041988353498394,2.494134432791499,0.188964538051857,0.13033888891282497,0.0035301560041058407,0.07906644848275865,0.17218004245850183,0.0014703075093621546,-0.9257286743080835,0.23866308861835162
15.404614210128784,2.6075153894342877,5.044628102521645,2.4942053221530305,0.19082569878384653,0.13356288238648986,0.0035583911181454346,0.10686961205737022,0.1502407502079808,0.0013535979309000372,-0.9327714820280231,-0.3521403859969796
15.424768686294556,2.609372085840202,5.046021343900928,2.4942405141822523,0.19042433221726174,0.13640378576429596,0.003556506263442538,0.12508205119448607,0.13488516262477437,0.0012417615514389358,-0.9246199442355238,0.40757688962496097
15.44456934928894,2.615064720866461,5.050257179667234,2.4943465649281564,0.19217258905868592,0.14269397101194675,0.003556176822379468,0.14329554460885233,0.11793961171782998,0.0011323981135137758,-0.9367893987944673,-0.6084727279471736
15.46463680267334,2.6189380088912655,5.053133517114038,2.494417907765422,0.19521445594456782,0.14488327676294682,0.003577749823584891,0.16076844871253979,0.1009905793069197,0.0010252736357428366,-0.9231107326460823,0.6839333074192488
15.484572410583496,2.622786384467746,5.056179530973132,2.494484692512934,0.1963653428873396,0.1500101205814641,0.0034631051689211993,0.17086046361088988,0.08814114526418503,0.0009286747066312139,-0.9419029423810179,-0.939610486746778
15.504636764526367,2.6267485118547853,5.05919650027282,2.494554134008459,0.199879414369318,0.15164366532426668,0.0034807288555225155,0.1804661301920329,0.07519798110297411,0.0008340160431257384,-0.9196192375390302,1.1141852420993859
15.524751424789429,2.6287191911406294,5.060796950922876,2.4945814192065883,0.2007619957883379,0.15452303431751915,0.003262736924843548,0.19028225855593076,0.05910035842661851,0.0007569628670803286,-0.9486697039378784,-1.4525233199424115
15.5445556640625,2.634805854916867,5.065539937958221,2.49466447137653,0.20594891588761738,0.1585292848075918,0.002826263098136668,0.19771267403830473,0.05250046923241061,0.0007088537003678341,-0.9172537774019807,1.5707963267948966
15.564629077911377,2.6389648504296184,5.068720569155592,2.49472113522806,0.20997402579484264,0.159510864522065,0.002839963431395156,0.20472988305208586,0.04560943905679666,0.0006612666508553837,-0.9486697039378784,-1.5707963267948966
15.584571599960327,2.6432028153143903,5.072017074877608,2.4947349081777186,0.21411170473129343,0.16283262570869106,0.0017308699228641956,0.21138177496583696,0.05063203453633781,0.0006850993551758396,-0.9173667960161218,1.5651453960878303
15.604623079299927,2.6475277484798005,5.075284153383679,2.4947696640978116,0.21840240430742217,0.1638896213581856,0.0017447957351396492,0.21761961197165233,0.05495114488262959,0.0007071943892914902,-0.9487827225520196,-1.5707963267948966
15.62464690208435,2.649733268131202,5.076965783872815,2.4947532338388347,0.2209922893410457,0.16558664256796554,0.000776423723602423,0.22837388007187884,0.062361031095845,0.0007883431973522621,-0.9198878757236595,1.4447423414180038
15.644588708877563,2.6541994769892,5.080290441993187,2.494768925211726,0.22566253692536536,0.1669011459361117,0.0007929720738088974,0.23855613922538277,0.06895416867464042,0.0008658964593237363,-0.9513038022595577,-1.5707963267948966
15.664677381515503,2.658776125458414,5.083648794910468,2.4947338254872746,0.23091436582172375,0.16835476847525485,-0.000444522723017412,0.24960843262896404,0.07178934129367007,0.00101652026068613,-0.9204228519351769,1.5440475162190381
15.684579133987427,2.665825072063968,5.088712204666805,2.494690412886107,0.23875618819785935,0.17000429355818655,-0.001286668225898004,0.26028602176075494,0.08056293871960948,0.001213875152748032,-0.9518387784710747,-1.5707963267948966
15.704645872116089,2.670652934530798,5.092128944028373,2.494664935079482,0.24406363128930136,0.17169596017704947,-0.0012604794867167165,0.27035799107356684,0.08845842264529218,0.001403761641066967,-0.9248892044880632,1.3474786991505727
15.724666357040405,2.6731197445622534,5.093821669418032,2.494623962905808,0.24724290542105182,0.17180974216426678,-0.0020527257846872458,0.2831210162444557,0.09601307530581085,0.0016314424616423592,-0.956305131023961,-1.5707963267948966
15.744585990905762,2.680669466040807,5.098977394041149,2.4945406440649,0.25596655190782885,0.1735656675796054,-0.0026340729029699582,0.29349282512703484,0.10528854200422172,0.0018866340037358832,-0.9248892044880632,1.5707963267948966
15.764739751815796,2.6858481558692335,5.102470335037787,2.4944883564650135,0.2619349254087564,0.17575612828747766,-0.0025938684862771852,0.30324130010587425,0.11359763706793917,0.0021322157691164153,-0.956305131023961,-1.5707963267948966
15.78456425666809,2.6911592272317684,5.1059371846805615,2.494403028230209,0.26837531132617476,0.1762618288621654,-0.003388905509426147,0.3132159057421635,0.1178957867078756,0.0024133729346094896,-0.9287175585912668,1.3793786216347081
15.804608345031738,2.696590010021002,5.109486246374987,2.494335751003557,0.2747341139021707,0.1786559678695901,-0.0033379155624627013,0.3225599326987198,0.12138417829380896,0.002683853080882177,-0.960133485127165,-1.5707963267948966
15.824669122695923,2.6993608753921023,5.1112292252677625,2.4942838767253748,0.2781926745813384,0.17854934662438876,-0.003818102415451845,0.32377083603245005,0.1321068564703957,0.002967166317552337,-0.9287175585912673,1.5707963267948966
15.844712257385254,2.704989547136682,5.114827299294745,2.4942081264468734,0.28467742897707665,0.18129053000958856,-0.003756017728624,0.3246496441280379,0.14184927036937212,0.0032394803809564035,-0.960133485127165,-1.5707963267948966
15.864647150039673,2.7107614873762893,5.118400850004845,2.4941095981670047,0.2915710500530024,0.18220460524703852,-0.00430034575690112,0.3260614812634535,0.1553316534667998,0.003529847943830484,-0.9329552780157258,1.3589103555719628
15.884620904922485,2.719678219223318,5.1238776397087005,2.493968270571902,0.30205015858953577,0.18525345294094006,-0.0045753682223924255,0.32887485746989836,0.1660246899512971,0.003826955250518211,-0.9643712045516235,-1.5707963267948966
15.90462851524353,2.7257851643061146,5.127616575895251,2.4938775478121555,0.30865235564395016,0.1886724372178915,-0.004495956893846019,0.3312767381882759,0.1757063812177817,0.004112215197273982,-0.9342007231658664,1.5085240692878532
15.924617290496826,2.732069832929124,5.131337134643461,2.4937738312549445,0.31636847048099187,0.19029388525268523,-0.0047764812341303375,0.32506276156120334,0.21255762239789597,0.004397865829571367,-0.9656166497017642,-1.5707963267948966
15.944551467895508,2.738481983672968,5.135147333341252,2.493673277975904,0.32353543664272577,0.19349917438298259,-0.004882093115348354,0.32478817458675996,0.245044136942556,0.004678501988434683,-0.9382290085166556,1.3693820592554307
15.96459174156189,2.74501761493664,5.139068399843675,2.493576589935412,0.33002565680263085,0.198709670154764,-0.0047858145896999636,0.32417837923033926,0.275702831094734,0.004947407680752857,-0.9696449350525533,-1.5707963267948966
15.98450493812561,2.7517433016124406,5.142946874307835,2.493472000780943,0.33802610335578065,0.20058535565283314,-0.004919609267980528,0.32490928332054814,0.30376232652084373,0.005208181117774704,-0.9385877153172282,1.552860986766258
16.004661083221436,2.7585688361108973,5.147021115995735,2.4933746670478207,0.34452857504743306,0.206926454390551,-0.004812932658672399,0.32527793560211526,0.3300551046599929,0.005457599164223078,-0.9700036418531264,-1.5707963267948966
16.024903774261475,2.765582068352022,5.151043250760024,2.4932698676149467,0.35247177031873583,0.20913988427853744,-0.004950503824562116,0.3267283739437345,0.3516952562304832,0.005700169715960786,-0.9432633820698788,1.3370129891623783
16.044551372528076,2.772716298932115,5.15523127849556,2.4931696939333063,0.35968509351964595,0.2141610866752896,-0.004906098824357853,0.3310173651086426,0.37039163956548493,0.005930482263130916,-0.9746793086057766,-1.5707963267948966
16.064650297164917,2.779976463284177,5.159589753518444,2.4930727728693407,0.3663438468443592,0.2217439817744141,-0.004785275673452717,0.33476903705586497,0.3876618176769492,0.006150054180952841,-0.9432633820698788,1.5707963267948966
16.084539890289307,2.787410995497744,5.163952051968676,2.492975572507649,0.3740481225130344,0.22592643058338271,-0.0047412434208959795,0.33811210551753573,0.3989240361503191,0.006352686146513171,-0.9746793086057766,-1.5707963267948966
16.108562231063843,2.794959779007081,5.168551052420476,2.492882031180706,0.38083975953621285,0.23400691187807635,-0.004612247409763845,0.3409715519520052,0.40891353245622275,0.0065452474166980135,-0.9472839812080665,1.3697663698855056
16.124796628952026,2.7988011761970455,5.170839271917405,2.492831895793388,0.3844991577220753,0.23606855194879126,-0.004662865617007906,0.31651816482538564,0.4058491048969708,0.006726905956364966,-0.9786999077439642,-1.5707963267948966
16.14462971687317,2.8144817124045667,5.1805421720365,2.4926505204251943,0.398454749992213,0.25093348987032554,-0.004401449267831445,0.31947401648363566,0.41741103529442775,0.006888357728645442,-0.9489031185997763,1.4898394572093965
16.1646409034729,2.822514875331166,5.185645032078604,2.4925638794219487,0.40486980305023407,0.25938687867885035,-0.004262143020805529,0.32195224277679957,0.42772064001900434,0.007040770497627,-0.9803190451356745,-1.5707963267948966
16.184580087661743,2.826616878032298,5.188245498930365,2.4925198806247066,0.40913282522766564,0.26326630150362146,-0.004248956908689822,0.3211521719748623,0.42760093954728196,0.007180390585947181,-0.9509151329322787,1.4701956101697888
16.204747676849365,2.834863694797789,5.193596293701124,2.4924363464472608,0.4155450644049051,0.2718098851419226,-0.004104023742217106,0.320016181480034,0.4266140402800688,0.007311520606481088,-0.9823310594681764,-1.5707963267948966
16.224679946899414,2.8432800737426978,5.199108011443457,2.4923534323267162,0.422964354036017,0.2800916636029479,-0.004017166215637314,0.3215481484208803,0.4155718702498063,0.0074276868349383175,-0.9541246813374222,1.4103189065377109
16.24458360671997,2.8518137772703556,5.2048037233076325,2.4922736620571055,0.429697334072034,0.2887029477068041,-0.0038954472239642437,0.317984751859002,0.4047960910801132,0.007532649410706212,-0.98554060787332,-1.5707963267948966
16.26465344429016,2.8604710712786465,5.210657996986613,2.492197266260406,0.4360193863646956,0.2966867649712718,-0.00374380782932446,0.3141807006196353,0.3934996901187097,0.007630036179927431,-0.956198130690145,1.4671238591587477
16.284571647644043,2.8692760323130426,5.216744401500525,2.492122344371931,0.4428341003131485,0.30645802676379624,-0.003641828973283542,0.31206840510972206,0.3859563026739958,0.00771324921201997,-0.9876140572260432,-1.5707963267948966
16.304665327072144,2.878194972450538,5.222950218698873,2.4920510556398625,0.44905189257525713,0.314096439985586,-0.0034867901430189396,0.3096622234371546,0.3777805643287913,0.00778947801569056,-0.9601158545067583,1.3749101359642468
16.32475757598877,2.8872625736735924,5.229419646428642,2.4919792928720548,0.45581535226627806,0.32438269167184924,-0.003420135675749931,0.30363374136579846,0.36587500660665956,0.007854931310299549,-0.9915317810426565,-1.5707963267948966
16.344542980194092,2.896450223375043,5.236025270184691,2.4919120601097577,0.4622288847668472,0.33307600382032837,-0.00327799484399106,0.30146490717381974,0.3502453235128169,0.007910134771766553,-0.9620084953270691,1.4761642857793689
16.364635944366455,2.9057549352097536,5.242755777177168,2.4918480856089067,0.46823412109669765,0.339921255992867,-0.0031192919314136473,0.299011698625597,0.3342136429348028,0.00795912919778556,-0.9934244218629669,-1.5707963267948966
16.384572982788086,2.9152080289727342,5.249752596377436,2.491783048845788,0.4748801369940845,0.34979969563478197,-0.003070929695893969,0.29479080854261974,0.31836610477363814,0.00799992918481954,-0.966920958467044,1.3251731697961455
16.4046368598938,2.9247642978546695,5.256811187536866,2.4917232326666245,0.4807319747678336,0.35600530118753854,-0.002910571585987293,0.29035793910258967,0.30213051686210823,0.008034920966696061,-0.9983368850029422,-1.5707963267948966
16.42485737800598,2.9296012956256177,5.260481001144903,2.491693065308966,0.48404784047808685,0.3615568717106616,-0.0028633057062327372,0.2888117431622085,0.2815865634078115,0.00806152003581016,-0.9669209584670444,1.5707963267948966
16.444546461105347,2.949214956410512,5.27533563333115,2.4915810549794024,0.49604491444501775,0.37679833113691663,-0.00266307170917198,0.2832092097828825,0.2616299175481598,0.008077650181366053,-0.9983368850029422,-1.5707963267948966
16.46461772918701,2.959192115092621,5.282922584293177,2.491529409895665,0.5016517502746939,0.3818294993854057,-0.0025013998566828346,0.27744821240956674,0.2414503292446533,0.008088693863892228,-0.9778794144984304,1.0228735252255872
16.48456645011902,2.9642317200243533,5.2868499784535485,2.4915010865435465,0.5046399762081959,0.3868085484364392,-0.0025034887126441675,0.2715125895972018,0.21860495915204375,0.008095872896717392,-1.0073725125915343,-1.4746549046551927
16.504610300064087,2.9743784193615563,5.294628342550819,2.4914526361808296,0.5100097069478966,0.3909513899752156,-0.0023415397037687877,0.2654374668497128,0.19566365422979579,0.008098230761251608,-0.9759565860556361,1.5707963267948966
16.52483081817627,2.979506639922349,5.298656670559571,2.4914340795213175,0.5129935362448448,0.3958085713077357,-0.0021462128734142396,0.25409562967790544,0.1726259921492428,0.008084476762956523,-1.0073725125915338,-1.5707963267948966
16.545068502426147,3.0002646908762545,5.314807152881589,2.4913499017225478,0.5239055748987695,0.4070077326845898,-0.0019475201752693252,0.2387442390228764,0.15814374477734383,0.008061568169043442,-0.9818245520960645,1.2773980247734684
16.564631938934326,3.0107895379917826,5.322977956241009,2.4913125619112844,0.5285286445016713,0.4100233616504274,-0.0017865502264746995,0.22359657284010478,0.14337137875110526,0.008034786630432658,-1.0132404786319622,-1.5707963267948966
16.584635257720947,3.016110603427275,5.327172400867696,2.491295514975219,0.5313604875814355,0.4137162185311104,-0.0016997925136517584,0.20979204679440155,0.12205566397321675,0.008000550257702927,-0.9818245520960645,1.5707963267948966
16.604665994644165,3.0267788595689584,5.335469713317441,2.4912631167773562,0.5354196632880655,0.4159438421681545,-0.0015401530470347715,0.196153043675606,0.10070044769625291,0.007962818967746163,-1.0132404786319622,-1.5707963267948966
16.624976873397827,3.0321851516177647,5.339716217677424,2.49124583488354,0.5385267272610235,0.4190702130267821,-0.0015424263000701048,0.1893233662716686,0.07780437805416178,0.007923974243799594,-0.9859059428010912,1.3667267915435488
16.64458131790161,3.048474488814485,5.352412482025063,2.491199493245573,0.5455381109275141,0.42368061417311426,-0.0013952984432743956,0.18639326724818522,0.04686097727284842,0.00787933532860237,-1.017321869336989,-1.5707963267948966
16.664648056030273,3.059422323678397,5.360893419769383,2.491173160011121,0.5492348989307437,0.42431109271621703,-0.0012381842206167814,0.1832503676163556,0.01624070996095316,0.007831570672687202,-0.9902663060852595,1.3527781625864765
16.684592485427856,3.0704881597170894,5.369513571172869,2.491148644821335,0.5538506037728775,0.427735809828824,-0.0011155310476662385,0.17248525767752523,-0.009291218163401825,0.007775693493520124,-1.0216822326211572,-1.5707963267948966
16.704630851745605,3.0815989557124475,5.378064736922819,2.4911278854769456,0.5571934148424096,0.42729632082527874,-0.0009605987572498608,0.16181097991868912,-0.03462450656410287,0.007717084567217887,-0.9922199253674195,1.4731153626868831
16.724835634231567,3.0871952768659394,5.382426680257329,2.4911197848029296,0.5592429477099198,0.42927837310167366,-0.0008616300569421006,0.15911475222634583,-0.062079726617888034,0.0076520539356627485,-1.0236358519033173,-1.5707963267948966
